time,packet_num,acc_x,acc_y,acc_z,gyro_x,gyro_y,gyro_z,gesture
8743671,97,40.94084930419922,121.35729217529297,0.10055647045373917,-259.3902587890625,1529.756103515625,7.439024448394775,no_gesture
8743810,104,-154.449951171875,114.00231170654297,0.6799532771110535,-1680.1829833984375,1451.7073974609375,10.609756469726562,no_gesture
8743829,105,-154.40206909179688,114.00231170654297,0.6799532771110535,-1680.1829833984375,1451.7073974609375,10.609756469726562,no_gesture
8743849,106,-154.1339111328125,114.00231170654297,0.6799532771110535,-1680.1829833984375,1451.7073974609375,10.609756469726562,no_gesture
8743869,107,-154.12913513183594,114.00231170654297,0.6799532771110535,-1680.1829833984375,1451.7073974609375,10.609756469726562,no_gesture
8743889,108,-153.9423828125,114.00231170654297,0.6799532771110535,-1680.1829833984375,1451.7073974609375,10.609756469726562,no_gesture
8743909,109,-154.0572967529297,114.00231170654297,0.6799532771110535,-1680.1829833984375,1451.7073974609375,10.609756469726562,no_gesture
8743928,110,-153.38214111328125,114.00231170654297,0.6799532771110535,-1680.1829833984375,1451.7073974609375,10.609756469726562,no_gesture
8743948,111,-153.731689453125,114.00231170654297,0.6799532771110535,-1680.1829833984375,1451.7073974609375,10.609756469726562,no_gesture
8743968,112,-154.08602905273438,114.00231170654297,0.6799532771110535,-1680.1829833984375,1451.7073974609375,10.609756469726562,no_gesture
8744008,114,-153.54493713378906,114.00231170654297,0.6799532771110535,-1680.1829833984375,1451.7073974609375,10.609756469726562,no_gesture
8744027,115,-153.78915405273438,114.00231170654297,0.6799532771110535,-1680.1829833984375,1451.7073974609375,10.609756469726562,no_gesture
8744047,116,-154.06687927246094,114.00231170654297,0.6799532771110535,-1680.1829833984375,1451.7073974609375,10.609756469726562,no_gesture
8744067,117,-154.2727813720703,114.00231170654297,0.6799532771110535,-1680.1829833984375,1451.7073974609375,10.609756469726562,no_gesture
8744087,118,-154.0477294921875,114.00231170654297,0.6799532771110535,-1680.1829833984375,1451.7073974609375,10.609756469726562,no_gesture
8744106,119,-153.79872131347656,114.00231170654297,0.6799532771110535,-1680.1829833984375,1451.7073974609375,10.609756469726562,no_gesture
8744126,120,-153.64071655273438,114.00231170654297,0.6799532771110535,-1680.1829833984375,1451.7073974609375,10.609756469726562,no_gesture
8744146,121,-153.3582000732422,114.00231170654297,0.6799532771110535,-1680.1829833984375,1451.7073974609375,10.609756469726562,no_gesture
8744166,122,-154.24884033203125,114.00231170654297,0.6799532771110535,-1680.1829833984375,1451.7073974609375,10.609756469726562,no_gesture
8744186,123,-153.82745361328125,114.00231170654297,0.6799532771110535,-1680.1829833984375,1451.7073974609375,10.609756469726562,no_gesture
8744205,124,-154.21531677246094,114.00231170654297,0.6799532771110535,-1680.1829833984375,1451.7073974609375,10.609756469726562,no_gesture
8744225,125,-153.99026489257812,114.00231170654297,0.6799532771110535,-1680.1829833984375,1451.7073974609375,10.609756469726562,no_gesture
8744245,126,-153.8657684326172,114.00231170654297,0.6799532771110535,-1680.1829833984375,1451.7073974609375,10.609756469726562,no_gesture
8744265,127,-154.07167053222656,114.00231170654297,0.6799532771110535,-1680.1829833984375,1451.7073974609375,10.609756469726562,no_gesture
8744285,128,-153.60240173339844,114.00231170654297,0.6799532771110535,-1680.1829833984375,1451.7073974609375,10.609756469726562,no_gesture
8744324,130,-153.53057861328125,114.00231170654297,0.6799532771110535,-1680.1829833984375,1451.7073974609375,10.609756469726562,no_gesture
8744344,131,-153.66465759277344,114.00231170654297,0.6799532771110535,-1680.1829833984375,1451.7073974609375,10.609756469726562,no_gesture
8744364,132,-154.38291931152344,114.00231170654297,0.6799532771110535,-1680.1829833984375,1451.7073974609375,10.609756469726562,no_gesture
8744384,133,-153.73648071289062,114.00231170654297,0.6799532771110535,-1680.1829833984375,1451.7073974609375,10.609756469726562,no_gesture
8744403,134,-153.3582000732422,114.00231170654297,0.6799532771110535,-1680.1829833984375,1451.7073974609375,10.609756469726562,no_gesture
8744423,135,-154.0908203125,114.00231170654297,0.6799532771110535,-1680.1829833984375,1451.7073974609375,10.609756469726562,no_gesture
8744443,136,-153.66944885253906,114.00231170654297,0.6799532771110535,-1680.1829833984375,1451.7073974609375,10.609756469726562,no_gesture
8744463,137,-154.2679901123047,114.00231170654297,0.6799532771110535,-1680.1829833984375,1451.7073974609375,10.609756469726562,no_gesture
8744482,138,-153.434814453125,114.00231170654297,0.6799532771110535,-1680.1829833984375,1451.7073974609375,10.609756469726562,no_gesture
8744502,139,-154.20574951171875,114.00231170654297,0.6799532771110535,-1680.1829833984375,1451.7073974609375,10.609756469726562,no_gesture
8744522,140,-153.85618591308594,114.00231170654297,0.6799532771110535,-1680.1829833984375,1451.7073974609375,10.609756469726562,no_gesture
8744542,141,-153.60719299316406,114.00231170654297,0.6799532771110535,-1680.1829833984375,1451.7073974609375,10.609756469726562,no_gesture
8744562,142,-154.39248657226562,114.00231170654297,0.6799532771110535,-1680.1829833984375,1451.7073974609375,10.609756469726562,no_gesture
8744581,143,-153.27679443359375,114.00231170654297,0.6799532771110535,-1680.1829833984375,1451.7073974609375,10.609756469726562,no_gesture
8744601,144,-153.9854736328125,114.00231170654297,0.6799532771110535,-1680.1829833984375,1451.7073974609375,10.609756469726562,no_gesture
8744621,145,-154.42601013183594,114.00231170654297,0.6799532771110535,-1680.1829833984375,1451.7073974609375,10.609756469726562,no_gesture
8744641,146,-153.87533569335938,114.00231170654297,0.6799532771110535,-1680.1829833984375,1451.7073974609375,10.609756469726562,no_gesture
8744661,147,-153.83224487304688,114.00231170654297,0.6799532771110535,-1680.1829833984375,1451.7073974609375,10.609756469726562,swipe_right
8744680,148,-153.90406799316406,114.00231170654297,0.6799532771110535,-1680.1829833984375,1451.7073974609375,10.609756469726562,no_gesture
8744700,149,-153.60240173339844,114.00231170654297,0.6799532771110535,-1680.1829833984375,1451.7073974609375,10.609756469726562,no_gesture
8744740,151,-153.9567413330078,114.00231170654297,0.6799532771110535,-1680.1829833984375,1451.7073974609375,10.609756469726562,no_gesture
8744760,152,-154.2679901123047,114.00231170654297,0.6799532771110535,-1680.1829833984375,1451.7073974609375,10.609756469726562,no_gesture
8744779,153,-154.4355926513672,114.00231170654297,0.6799532771110535,-1680.1829833984375,1451.7073974609375,10.609756469726562,no_gesture
8744799,154,-154.08602905273438,114.00231170654297,0.6799532771110535,-1680.1829833984375,1451.7073974609375,10.609756469726562,no_gesture
8744819,155,-153.731689453125,114.00231170654297,0.6799532771110535,-1680.1829833984375,1451.7073974609375,10.609756469726562,no_gesture
8744839,156,-153.89450073242188,114.00231170654297,0.6799532771110535,-1680.1829833984375,1451.7073974609375,10.609756469726562,no_gesture
8744858,157,-154.20574951171875,114.00231170654297,0.6799532771110535,-1680.1829833984375,1451.7073974609375,10.609756469726562,no_gesture
8744878,158,-153.90406799316406,114.00231170654297,0.6799532771110535,-1680.1829833984375,1451.7073974609375,10.609756469726562,no_gesture
8744898,159,-153.74127197265625,114.00231170654297,0.6799532771110535,-1680.1829833984375,1451.7073974609375,10.609756469726562,no_gesture
8744938,161,-153.47311401367188,114.00231170654297,0.6799532771110535,-1680.1829833984375,1451.7073974609375,10.609756469726562,no_gesture
8744957,162,-153.52578735351562,114.00231170654297,0.6799532771110535,-1680.1829833984375,1451.7073974609375,10.609756469726562,no_gesture
8744977,163,-153.54493713378906,114.00231170654297,0.6799532771110535,-1680.1829833984375,1451.7073974609375,10.609756469726562,no_gesture
8744997,164,-153.68380737304688,114.00231170654297,0.6799532771110535,-1680.1829833984375,1451.7073974609375,10.609756469726562,no_gesture
8745017,165,-153.8226776123047,114.00231170654297,0.6799532771110535,-1680.1829833984375,1451.7073974609375,10.609756469726562,no_gesture
8745056,167,-153.87533569335938,114.00231170654297,0.6799532771110535,-1680.1829833984375,1451.7073974609375,10.609756469726562,no_gesture
8745076,168,-153.31031799316406,114.00231170654297,0.6799532771110535,-1680.1829833984375,1451.7073974609375,10.609756469726562,no_gesture
8745096,169,-154.0189971923828,114.00231170654297,0.6799532771110535,-1680.1829833984375,1451.7073974609375,10.609756469726562,no_gesture
8745175,173,-154.05252075195312,114.00231170654297,0.6799532771110535,-1680.1829833984375,1451.7073974609375,10.609756469726562,no_gesture
8745195,174,-153.66944885253906,114.00231170654297,0.6799532771110535,-1680.1829833984375,1451.7073974609375,10.609756469726562,no_gesture
8745234,176,-153.47311401367188,114.00231170654297,0.6799532771110535,-1680.1829833984375,1451.7073974609375,10.609756469726562,no_gesture
8745254,177,-154.22010803222656,114.00231170654297,0.6799532771110535,-1680.1829833984375,1451.7073974609375,10.609756469726562,no_gesture
8745294,179,-154.1626434326172,114.00231170654297,0.6799532771110535,-1680.1829833984375,1451.7073974609375,10.609756469726562,no_gesture
8745314,180,-154.30630493164062,114.00231170654297,0.6799532771110535,-1680.1829833984375,1451.7073974609375,10.609756469726562,no_gesture
8745353,182,-153.37255859375,114.00231170654297,0.6799532771110535,-1680.1829833984375,1451.7073974609375,10.609756469726562,no_gesture
8745373,183,-154.12913513183594,114.00231170654297,0.6799532771110535,-1680.1829833984375,1451.7073974609375,10.609756469726562,no_gesture
8745413,185,-154.3110809326172,114.00231170654297,0.6799532771110535,-1680.1829833984375,1451.7073974609375,10.609756469726562,no_gesture
8745432,186,-154.28713989257812,114.00231170654297,0.6799532771110535,-1680.1829833984375,1451.7073974609375,10.609756469726562,no_gesture
8745472,188,-154.1674346923828,114.00231170654297,0.6799532771110535,-1680.1829833984375,1451.7073974609375,10.609756469726562,no_gesture
8745492,189,-153.7939453125,114.00231170654297,0.6799532771110535,-1680.1829833984375,1451.7073974609375,10.609756469726562,no_gesture
8745531,191,-153.2384796142578,114.00231170654297,0.6799532771110535,-1680.1829833984375,1451.7073974609375,10.609756469726562,no_gesture
8745551,192,-154.1339111328125,114.00231170654297,0.6799532771110535,-1680.1829833984375,1451.7073974609375,10.609756469726562,no_gesture
8745591,194,-153.87533569335938,114.00231170654297,0.6799532771110535,-1680.1829833984375,1451.7073974609375,10.609756469726562,swipe_right
8745610,195,-153.2959442138672,114.00231170654297,0.6799532771110535,-1680.1829833984375,1451.7073974609375,10.609756469726562,no_gesture
8745650,197,-153.5976104736328,114.00231170654297,0.6799532771110535,-1680.1829833984375,1451.7073974609375,10.609756469726562,no_gesture
8745670,198,-154.28713989257812,114.00231170654297,0.6799532771110535,-1680.1829833984375,1451.7073974609375,10.609756469726562,no_gesture
8745709,200,-153.35340881347656,114.00231170654297,0.6799532771110535,-1680.1829833984375,1451.7073974609375,10.609756469726562,no_gesture
8745725,201,-140.8843994140625,152.00308227539062,0.22026655077934265,600.6707153320312,1904.3902587890625,5.670732021331787,no_gesture
8745789,204,-140.0943145751953,152.00308227539062,0.22026655077934265,600.6707153320312,1904.3902587890625,5.670732021331787,no_gesture
8745808,205,-140.77427673339844,152.00308227539062,0.22026655077934265,600.6707153320312,1904.3902587890625,5.670732021331787,no_gesture
8745828,206,-140.80300903320312,152.00308227539062,0.22026655077934265,600.6707153320312,1904.3902587890625,5.670732021331787,no_gesture
8745848,207,-139.8692626953125,152.00308227539062,0.22026655077934265,600.6707153320312,1904.3902587890625,5.670732021331787,no_gesture
8746026,216,-140.45823669433594,152.00308227539062,0.22026655077934265,600.6707153320312,1904.3902587890625,5.670732021331787,no_gesture
8746046,217,-140.3624725341797,152.00308227539062,0.22026655077934265,600.6707153320312,1904.3902587890625,5.670732021331787,no_gesture
8746066,218,-140.45823669433594,152.00308227539062,0.22026655077934265,600.6707153320312,1904.3902587890625,5.670732021331787,no_gesture
8746085,219,-140.28585815429688,152.00308227539062,0.22026655077934265,600.6707153320312,1904.3902587890625,5.670732021331787,no_gesture
8746125,221,-139.9027862548828,152.00308227539062,0.22026655077934265,600.6707153320312,1904.3902587890625,5.670732021331787,no_gesture
8746145,222,-140.9131317138672,152.00308227539062,0.22026655077934265,600.6707153320312,1904.3902587890625,5.670732021331787,no_gesture
8746164,223,-140.71202087402344,152.00308227539062,0.22026655077934265,600.6707153320312,1904.3902587890625,5.670732021331787,no_gesture
8746224,226,-139.91714477539062,152.00308227539062,0.22026655077934265,600.6707153320312,1904.3902587890625,5.670732021331787,no_gesture
8746382,234,-139.92193603515625,152.00308227539062,0.22026655077934265,600.6707153320312,1904.3902587890625,5.670732021331787,no_gesture
8746402,235,-140.50132751464844,152.00308227539062,0.22026655077934265,600.6707153320312,1904.3902587890625,5.670732021331787,no_gesture
8746422,236,-140.2571258544922,152.00308227539062,0.22026655077934265,600.6707153320312,1904.3902587890625,5.670732021331787,no_gesture
8746501,240,-140.3480987548828,152.00308227539062,0.22026655077934265,600.6707153320312,1904.3902587890625,5.670732021331787,no_gesture
8746521,241,-140.0512237548828,152.00308227539062,0.22026655077934265,600.6707153320312,1904.3902587890625,5.670732021331787,no_gesture
8746540,242,-140.41514587402344,152.00308227539062,0.22026655077934265,600.6707153320312,1904.3902587890625,5.670732021331787,no_gesture
8746580,244,-140.62582397460938,152.00308227539062,0.22026655077934265,600.6707153320312,1904.3902587890625,5.670732021331787,no_gesture
8746600,245,-140.333740234375,152.00308227539062,0.22026655077934265,600.6707153320312,1904.3902587890625,5.670732021331787,swipe_right
8746818,256,-140.3624725341797,152.00308227539062,0.22026655077934265,600.6707153320312,1904.3902587890625,5.670732021331787,no_gesture
8746837,257,-139.81658935546875,152.00308227539062,0.22026655077934265,600.6707153320312,1904.3902587890625,5.670732021331787,no_gesture
8746857,258,-140.74075317382812,152.00308227539062,0.22026655077934265,600.6707153320312,1904.3902587890625,5.670732021331787,no_gesture
8746877,259,-140.64498901367188,152.00308227539062,0.22026655077934265,600.6707153320312,1904.3902587890625,5.670732021331787,no_gesture
8746936,262,-140.29542541503906,152.00308227539062,0.22026655077934265,600.6707153320312,1904.3902587890625,5.670732021331787,no_gesture
8747114,271,-139.98419189453125,152.00308227539062,0.22026655077934265,600.6707153320312,1904.3902587890625,5.670732021331787,no_gesture
8747134,272,-140.66893005371094,152.00308227539062,0.22026655077934265,600.6707153320312,1904.3902587890625,5.670732021331787,no_gesture
8747154,273,-139.8357391357422,152.00308227539062,0.22026655077934265,600.6707153320312,1904.3902587890625,5.670732021331787,no_gesture
8747174,274,-140.903564453125,152.00308227539062,0.22026655077934265,600.6707153320312,1904.3902587890625,5.670732021331787,no_gesture
8747213,276,-140.69287109375,152.00308227539062,0.22026655077934265,600.6707153320312,1904.3902587890625,5.670732021331787,no_gesture
8747233,277,-139.96023559570312,152.00308227539062,0.22026655077934265,600.6707153320312,1904.3902587890625,5.670732021331787,no_gesture
8747253,278,-140.1996612548828,152.00308227539062,0.22026655077934265,600.6707153320312,1904.3902587890625,5.670732021331787,no_gesture
8747292,280,-140.4534454345703,152.00308227539062,0.22026655077934265,600.6707153320312,1904.3902587890625,5.670732021331787,no_gesture
8747471,289,-139.8405303955078,152.00308227539062,0.22026655077934265,600.6707153320312,1904.3902587890625,5.670732021331787,no_gesture
8747490,290,-140.83172607421875,152.00308227539062,0.22026655077934265,600.6707153320312,1904.3902587890625,5.670732021331787,no_gesture
8747510,291,-140.23797607421875,152.00308227539062,0.22026655077934265,600.6707153320312,1904.3902587890625,5.670732021331787,no_gesture
8747569,294,-139.90757751464844,152.00308227539062,0.22026655077934265,600.6707153320312,1904.3902587890625,5.670732021331787,no_gesture
8747589,295,-140.6018829345703,152.00308227539062,0.22026655077934265,600.6707153320312,1904.3902587890625,5.670732021331787,no_gesture
8747629,297,-140.81736755371094,152.00308227539062,0.22026655077934265,600.6707153320312,1904.3902587890625,5.670732021331787,no_gesture
8747649,298,-140.02249145507812,152.00308227539062,0.22026655077934265,600.6707153320312,1904.3902587890625,5.670732021331787,no_gesture
8747688,300,-140.1565704345703,152.00308227539062,0.22026655077934265,600.6707153320312,1904.3902587890625,5.670732021331787,no_gesture
8747708,301,-140.23797607421875,152.00308227539062,0.22026655077934265,600.6707153320312,1904.3902587890625,5.670732021331787,no_gesture
8747767,304,23.367408752441406,80.90965270996094,1.9584569931030273,552.01220703125,-1763.841552734375,28.109756469726562,no_gesture
8747787,305,24.277204513549805,80.90965270996094,1.9584569931030273,552.01220703125,-1763.841552734375,28.109756469726562,no_gesture
8747807,306,23.314735412597656,80.90965270996094,1.9584569931030273,552.01220703125,-1763.841552734375,28.109756469726562,no_gesture
8747827,307,23.99947738647461,80.90965270996094,1.9584569931030273,552.01220703125,-1763.841552734375,28.109756469726562,swipe_right
8747866,309,24.334665298461914,80.90965270996094,1.9584569931030273,552.01220703125,-1763.841552734375,28.109756469726562,no_gesture
8747886,310,24.080881118774414,80.90965270996094,1.9584569931030273,552.01220703125,-1763.841552734375,28.109756469726562,no_gesture
8747926,312,23.305158615112305,80.90965270996094,1.9584569931030273,552.01220703125,-1763.841552734375,28.109756469726562,no_gesture
8747945,313,23.434446334838867,80.90965270996094,1.9584569931030273,552.01220703125,-1763.841552734375,28.109756469726562,no_gesture
8747985,315,23.616405487060547,80.90965270996094,1.9584569931030273,552.01220703125,-1763.841552734375,28.109756469726562,no_gesture
8748005,316,23.429656982421875,80.90965270996094,1.9584569931030273,552.01220703125,-1763.841552734375,28.109756469726562,no_gesture
8748025,317,24.037784576416016,80.90965270996094,1.9584569931030273,552.01220703125,-1763.841552734375,28.109756469726562,no_gesture
8748124,322,23.769634246826172,80.90965270996094,1.9584569931030273,552.01220703125,-1763.841552734375,28.109756469726562,no_gesture
8748143,323,23.357831954956055,80.90965270996094,1.9584569931030273,552.01220703125,-1763.841552734375,28.109756469726562,no_gesture
8748163,324,23.961170196533203,80.90965270996094,1.9584569931030273,552.01220703125,-1763.841552734375,28.109756469726562,no_gesture
8748183,325,23.611618041992188,80.90965270996094,1.9584569931030273,552.01220703125,-1763.841552734375,28.109756469726562,no_gesture
8748242,328,23.45838737487793,80.90965270996094,1.9584569931030273,552.01220703125,-1763.841552734375,28.109756469726562,no_gesture
8748262,329,24.42564582824707,80.90965270996094,1.9584569931030273,552.01220703125,-1763.841552734375,28.109756469726562,no_gesture
8748302,331,24.29157066345215,80.90965270996094,1.9584569931030273,552.01220703125,-1763.841552734375,28.109756469726562,no_gesture
8748321,332,24.090457916259766,80.90965270996094,1.9584569931030273,552.01220703125,-1763.841552734375,28.109756469726562,no_gesture
8748361,334,23.640348434448242,80.90965270996094,1.9584569931030273,552.01220703125,-1763.841552734375,28.109756469726562,no_gesture
8748381,335,23.424869537353516,80.90965270996094,1.9584569931030273,552.01220703125,-1763.841552734375,28.109756469726562,no_gesture
8748401,336,24.401702880859375,80.90965270996094,1.9584569931030273,552.01220703125,-1763.841552734375,28.109756469726562,no_gesture
8748480,340,24.032997131347656,80.90965270996094,1.9584569931030273,552.01220703125,-1763.841552734375,28.109756469726562,no_gesture
8748500,341,23.688232421875,80.90965270996094,1.9584569931030273,552.01220703125,-1763.841552734375,28.109756469726562,no_gesture
8748539,343,24.468740463256836,80.90965270996094,1.9584569931030273,552.01220703125,-1763.841552734375,28.109756469726562,no_gesture
8748559,344,23.558944702148438,80.90965270996094,1.9584569931030273,552.01220703125,-1763.841552734375,28.109756469726562,no_gesture
8748598,346,23.894132614135742,80.90965270996094,1.9584569931030273,552.01220703125,-1763.841552734375,28.109756469726562,no_gesture
8748618,347,23.357831954956055,80.90965270996094,1.9584569931030273,552.01220703125,-1763.841552734375,28.109756469726562,no_gesture
8748658,349,24.277204513549805,80.90965270996094,1.9584569931030273,552.01220703125,-1763.841552734375,28.109756469726562,no_gesture
8748678,350,24.10961151123047,80.90965270996094,1.9584569931030273,552.01220703125,-1763.841552734375,28.109756469726562,no_gesture
8748717,352,23.63077163696289,80.90965270996094,1.9584569931030273,552.01220703125,-1763.841552734375,28.109756469726562,no_gesture
8748737,353,23.424869537353516,80.90965270996094,1.9584569931030273,552.01220703125,-1763.841552734375,28.109756469726562,no_gesture
8748757,354,23.659502029418945,80.90965270996094,1.9584569931030273,552.01220703125,-1763.841552734375,28.109756469726562,no_gesture
8748796,356,23.6451358795166,80.90965270996094,1.9584569931030273,552.01220703125,-1763.841552734375,28.109756469726562,no_gesture
8748974,365,23.362619400024414,80.90965270996094,1.9584569931030273,552.01220703125,-1763.841552734375,28.109756469726562,no_gesture
8748994,366,23.554157257080078,80.90965270996094,1.9584569931030273,552.01220703125,-1763.841552734375,28.109756469726562,no_gesture
8749014,367,23.965959548950195,80.90965270996094,1.9584569931030273,552.01220703125,-1763.841552734375,28.109756469726562,no_gesture
8749034,368,24.325088500976562,80.90965270996094,1.9584569931030273,552.01220703125,-1763.841552734375,28.109756469726562,swipe_right
8749073,370,24.29157066345215,80.90965270996094,1.9584569931030273,552.01220703125,-1763.841552734375,28.109756469726562,no_gesture
8749093,371,23.309947967529297,80.90965270996094,1.9584569931030273,552.01220703125,-1763.841552734375,28.109756469726562,no_gesture
8749113,372,23.357831954956055,80.90965270996094,1.9584569931030273,552.01220703125,-1763.841552734375,28.109756469726562,no_gesture
8749153,374,23.52063751220703,80.90965270996094,1.9584569931030273,552.01220703125,-1763.841552734375,28.109756469726562,no_gesture
8749331,383,24.502260208129883,80.90965270996094,1.9584569931030273,552.01220703125,-1763.841552734375,28.109756469726562,no_gesture
8749350,384,23.798364639282227,80.90965270996094,1.9584569931030273,552.01220703125,-1763.841552734375,28.109756469726562,no_gesture
8749370,385,23.63077163696289,80.90965270996094,1.9584569931030273,552.01220703125,-1763.841552734375,28.109756469726562,no_gesture
8749430,388,24.143129348754883,80.90965270996094,1.9584569931030273,552.01220703125,-1763.841552734375,28.109756469726562,no_gesture
8749449,389,23.673866271972656,80.90965270996094,1.9584569931030273,552.01220703125,-1763.841552734375,28.109756469726562,no_gesture
8749469,390,23.807941436767578,80.90965270996094,1.9584569931030273,552.01220703125,-1763.841552734375,28.109756469726562,no_gesture
8749509,392,24.2580509185791,80.90965270996094,1.9584569931030273,552.01220703125,-1763.841552734375,28.109756469726562,no_gesture
8749529,393,24.296358108520508,80.90965270996094,1.9584569931030273,552.01220703125,-1763.841552734375,28.109756469726562,no_gesture
8749746,404,69.67127227783203,-139.74476623535156,0.3447650372982025,-178.71951293945312,-1810.731689453125,13.109756469726562,no_gesture
8749766,405,69.5611343383789,-139.74476623535156,0.3447650372982025,-178.71951293945312,-1810.731689453125,13.109756469726562,no_gesture
8749786,406,69.47015380859375,-139.74476623535156,0.3447650372982025,-178.71951293945312,-1810.731689453125,13.109756469726562,no_gesture
8749806,407,69.4557876586914,-139.74476623535156,0.3447650372982025,-178.71951293945312,-1810.731689453125,13.109756469726562,no_gesture
8749825,408,68.87639617919922,-139.74476623535156,0.3447650372982025,-178.71951293945312,-1810.731689453125,13.109756469726562,no_gesture
8749865,410,68.8668212890625,-139.74476623535156,0.3447650372982025,-178.71951293945312,-1810.731689453125,13.109756469726562,no_gesture
8750043,419,68.87639617919922,-139.74476623535156,0.3447650372982025,-178.71951293945312,-1810.731689453125,13.109756469726562,no_gesture
8750063,420,69.02483367919922,-139.74476623535156,0.3447650372982025,-178.71951293945312,-1810.731689453125,13.109756469726562,no_gesture
8750102,422,68.88117980957031,-139.74476623535156,0.3447650372982025,-178.71951293945312,-1810.731689453125,13.109756469726562,no_gesture
8750122,423,69.8388671875,-139.74476623535156,0.3447650372982025,-178.71951293945312,-1810.731689453125,13.109756469726562,no_gesture
8750162,425,69.05835723876953,-139.74476623535156,0.3447650372982025,-178.71951293945312,-1810.731689453125,13.109756469726562,no_gesture
8750182,426,69.64733123779297,-139.74476623535156,0.3447650372982025,-178.71951293945312,-1810.731689453125,13.109756469726562,no_gesture
8750201,427,68.67049407958984,-139.74476623535156,0.3447650372982025,-178.71951293945312,-1810.731689453125,13.109756469726562,swipe_up
8750241,429,69.26904296875,-139.74476623535156,0.3447650372982025,-178.71951293945312,-1810.731689453125,13.109756469726562,no_gesture
8750399,437,69.3360824584961,-139.74476623535156,0.3447650372982025,-178.71951293945312,-1810.731689453125,13.109756469726562,no_gesture
8750419,438,69.02005004882812,-139.74476623535156,0.3447650372982025,-178.71951293945312,-1810.731689453125,13.109756469726562,no_gesture
8750459,440,69.39353942871094,-139.74476623535156,0.3447650372982025,-178.71951293945312,-1810.731689453125,13.109756469726562,no_gesture
8750478,441,69.28340911865234,-139.74476623535156,0.3447650372982025,-178.71951293945312,-1810.731689453125,13.109756469726562,no_gesture
8750518,443,69.81970977783203,-139.74476623535156,0.3447650372982025,-178.71951293945312,-1810.731689453125,13.109756469726562,no_gesture
8750538,444,68.71359252929688,-139.74476623535156,0.3447650372982025,-178.71951293945312,-1810.731689453125,13.109756469726562,no_gesture
8750577,446,69.50367736816406,-139.74476623535156,0.3447650372982025,-178.71951293945312,-1810.731689453125,13.109756469726562,no_gesture
8750597,447,69.0535659790039,-139.74476623535156,0.3447650372982025,-178.71951293945312,-1810.731689453125,13.109756469726562,no_gesture
8750637,449,68.98174285888672,-139.74476623535156,0.3447650372982025,-178.71951293945312,-1810.731689453125,13.109756469726562,no_gesture
8750656,450,68.68486022949219,-139.74476623535156,0.3447650372982025,-178.71951293945312,-1810.731689453125,13.109756469726562,no_gesture
8750696,452,69.06793212890625,-139.74476623535156,0.3447650372982025,-178.71951293945312,-1810.731689453125,13.109756469726562,no_gesture
8750716,453,69.31214141845703,-139.74476623535156,0.3447650372982025,-178.71951293945312,-1810.731689453125,13.109756469726562,no_gesture
8750755,455,69.00568389892578,-139.74476623535156,0.3447650372982025,-178.71951293945312,-1810.731689453125,13.109756469726562,no_gesture
8750775,456,68.9769515991211,-139.74476623535156,0.3447650372982025,-178.71951293945312,-1810.731689453125,13.109756469726562,no_gesture
8750815,458,69.79576873779297,-139.74476623535156,0.3447650372982025,-178.71951293945312,-1810.731689453125,13.109756469726562,no_gesture
8750835,459,69.0535659790039,-139.74476623535156,0.3447650372982025,-178.71951293945312,-1810.731689453125,13.109756469726562,no_gesture
8750854,460,69.60901641845703,-139.74476623535156,0.3447650372982025,-178.71951293945312,-1810.731689453125,13.109756469726562,no_gesture
8750934,464,69.29777526855469,-139.74476623535156,0.3447650372982025,-178.71951293945312,-1810.731689453125,13.109756469726562,no_gesture
8750953,465,68.79499053955078,-139.74476623535156,0.3447650372982025,-178.71951293945312,-1810.731689453125,13.109756469726562,no_gesture
8750993,467,69.65211486816406,-139.74476623535156,0.3447650372982025,-178.71951293945312,-1810.731689453125,13.109756469726562,no_gesture
8751013,468,69.32650756835938,-139.74476623535156,0.3447650372982025,-178.71951293945312,-1810.731689453125,13.109756469726562,no_gesture
8751052,470,69.38396453857422,-139.74476623535156,0.3447650372982025,-178.71951293945312,-1810.731689453125,13.109756469726562,no_gesture
8751072,471,68.96258544921875,-139.74476623535156,0.3447650372982025,-178.71951293945312,-1810.731689453125,13.109756469726562,no_gesture
8751112,473,68.99131774902344,-139.74476623535156,0.3447650372982025,-178.71951293945312,-1810.731689453125,13.109756469726562,no_gesture
8751131,474,69.0535659790039,-139.74476623535156,0.3447650372982025,-178.71951293945312,-1810.731689453125,13.109756469726562,no_gesture
8751171,476,69.13497161865234,-139.74476623535156,0.3447650372982025,-178.71951293945312,-1810.731689453125,13.109756469726562,no_gesture
8751191,477,68.8285140991211,-139.74476623535156,0.3447650372982025,-178.71951293945312,-1810.731689453125,13.109756469726562,no_gesture
8751230,479,69.42706298828125,-139.74476623535156,0.3447650372982025,-178.71951293945312,-1810.731689453125,13.109756469726562,no_gesture
8751250,480,69.38396453857422,-139.74476623535156,0.3447650372982025,-178.71951293945312,-1810.731689453125,13.109756469726562,no_gesture
8751290,482,69.50846099853516,-139.74476623535156,0.3447650372982025,-178.71951293945312,-1810.731689453125,13.109756469726562,no_gesture
8751310,483,68.85245513916016,-139.74476623535156,0.3447650372982025,-178.71951293945312,-1810.731689453125,13.109756469726562,no_gesture
8751349,485,69.69999694824219,-139.74476623535156,0.3447650372982025,-178.71951293945312,-1810.731689453125,13.109756469726562,no_gesture
8751369,486,68.909912109375,-139.74476623535156,0.3447650372982025,-178.71951293945312,-1810.731689453125,13.109756469726562,swipe_up
8751408,488,69.85322570800781,-139.74476623535156,0.3447650372982025,-178.71951293945312,-1810.731689453125,13.109756469726562,no_gesture
8751428,489,69.41748046875,-139.74476623535156,0.3447650372982025,-178.71951293945312,-1810.731689453125,13.109756469726562,no_gesture
8751468,491,69.57550048828125,-139.74476623535156,0.3447650372982025,-178.71951293945312,-1810.731689453125,13.109756469726562,no_gesture
8751488,492,69.776611328125,-139.74476623535156,0.3447650372982025,-178.71951293945312,-1810.731689453125,13.109756469726562,no_gesture
8751527,494,69.40312194824219,-139.74476623535156,0.3447650372982025,-178.71951293945312,-1810.731689453125,13.109756469726562,no_gesture
8751547,495,68.89554595947266,-139.74476623535156,0.3447650372982025,-178.71951293945312,-1810.731689453125,13.109756469726562,no_gesture
8751587,497,68.80935668945312,-139.74476623535156,0.3447650372982025,-178.71951293945312,-1810.731689453125,13.109756469726562,no_gesture
8751606,498,69.67605590820312,-139.74476623535156,0.3447650372982025,-178.71951293945312,-1810.731689453125,13.109756469726562,no_gesture
8751646,500,69.78140258789062,-139.74476623535156,0.3447650372982025,-178.71951293945312,-1810.731689453125,13.109756469726562,no_gesture
8751666,501,69.26904296875,-139.74476623535156,0.3447650372982025,-178.71951293945312,-1810.731689453125,13.109756469726562,no_gesture
8751685,502,68.8428726196289,-139.74476623535156,0.3447650372982025,-178.71951293945312,-1810.731689453125,13.109756469726562,no_gesture
8751745,505,121.99415588378906,154.45474243164062,0.4596867263317108,-1631.4635009765625,1935.6097412109375,4.2682929039001465,no_gesture
8751903,513,121.73558044433594,154.45474243164062,0.4596867263317108,-1631.4635009765625,1935.6097412109375,4.2682929039001465,no_gesture
8751923,514,121.57756042480469,154.45474243164062,0.4596867263317108,-1631.4635009765625,1935.6097412109375,4.2682929039001465,no_gesture
8751963,516,122.48735809326172,154.45474243164062,0.4596867263317108,-1631.4635009765625,1935.6097412109375,4.2682929039001465,no_gesture
8751982,517,122.03246307373047,154.45474243164062,0.4596867263317108,-1631.4635009765625,1935.6097412109375,4.2682929039001465,no_gesture
8752022,519,121.43390655517578,154.45474243164062,0.4596867263317108,-1631.4635009765625,1935.6097412109375,4.2682929039001465,no_gesture
8752042,520,122.56397247314453,154.45474243164062,0.4596867263317108,-1631.4635009765625,1935.6097412109375,4.2682929039001465,no_gesture
8752061,521,122.05640411376953,154.45474243164062,0.4596867263317108,-1631.4635009765625,1935.6097412109375,4.2682929039001465,no_gesture
8752101,523,122.04203796386719,154.45474243164062,0.4596867263317108,-1631.4635009765625,1935.6097412109375,4.2682929039001465,no_gesture
8752121,524,122.20484161376953,154.45474243164062,0.4596867263317108,-1631.4635009765625,1935.6097412109375,4.2682929039001465,no_gesture
8752299,533,122.23357391357422,154.45474243164062,0.4596867263317108,-1631.4635009765625,1935.6097412109375,4.2682929039001465,no_gesture
8752339,535,121.87923431396484,154.45474243164062,0.4596867263317108,-1631.4635009765625,1935.6097412109375,4.2682929039001465,no_gesture
8752378,537,122.5160903930664,154.45474243164062,0.4596867263317108,-1631.4635009765625,1935.6097412109375,4.2682929039001465,no_gesture
8752398,538,122.2287826538086,154.45474243164062,0.4596867263317108,-1631.4635009765625,1935.6097412109375,4.2682929039001465,no_gesture
8752418,539,121.5057373046875,154.45474243164062,0.4596867263317108,-1631.4635009765625,1935.6097412109375,4.2682929039001465,no_gesture
8752457,541,122.4107437133789,154.45474243164062,0.4596867263317108,-1631.4635009765625,1935.6097412109375,4.2682929039001465,swipe_up
8752635,550,122.54960632324219,154.45474243164062,0.4596867263317108,-1631.4635009765625,1935.6097412109375,4.2682929039001465,no_gesture
8752655,551,122.17132568359375,154.45474243164062,0.4596867263317108,-1631.4635009765625,1935.6097412109375,4.2682929039001465,no_gesture
8752675,552,122.53524017333984,154.45474243164062,0.4596867263317108,-1631.4635009765625,1935.6097412109375,4.2682929039001465,no_gesture
8752695,553,121.41954803466797,154.45474243164062,0.4596867263317108,-1631.4635009765625,1935.6097412109375,4.2682929039001465,no_gesture
8752734,555,121.71642303466797,154.45474243164062,0.4596867263317108,-1631.4635009765625,1935.6097412109375,4.2682929039001465,no_gesture
8752754,556,121.95105743408203,154.45474243164062,0.4596867263317108,-1631.4635009765625,1935.6097412109375,4.2682929039001465,no_gesture
8752774,557,122.46820831298828,154.45474243164062,0.4596867263317108,-1631.4635009765625,1935.6097412109375,4.2682929039001465,no_gesture
8752813,559,121.48657989501953,154.45474243164062,0.4596867263317108,-1631.4635009765625,1935.6097412109375,4.2682929039001465,no_gesture
8752992,568,122.48735809326172,154.45474243164062,0.4596867263317108,-1631.4635009765625,1935.6097412109375,4.2682929039001465,no_gesture
8753011,569,122.43468475341797,154.45474243164062,0.4596867263317108,-1631.4635009765625,1935.6097412109375,4.2682929039001465,no_gesture
8753031,570,121.94148254394531,154.45474243164062,0.4596867263317108,-1631.4635009765625,1935.6097412109375,4.2682929039001465,no_gesture
8753051,571,121.36687469482422,154.45474243164062,0.4596867263317108,-1631.4635009765625,1935.6097412109375,4.2682929039001465,no_gesture
8753090,573,121.77867889404297,154.45474243164062,0.4596867263317108,-1631.4635009765625,1935.6097412109375,4.2682929039001465,no_gesture
8753110,574,122.3724365234375,154.45474243164062,0.4596867263317108,-1631.4635009765625,1935.6097412109375,4.2682929039001465,no_gesture
8753130,575,121.45306396484375,154.45474243164062,0.4596867263317108,-1631.4635009765625,1935.6097412109375,4.2682929039001465,no_gesture
8753170,577,122.25751495361328,154.45474243164062,0.4596867263317108,-1631.4635009765625,1935.6097412109375,4.2682929039001465,no_gesture
8753348,586,121.83134460449219,154.45474243164062,0.4596867263317108,-1631.4635009765625,1935.6097412109375,4.2682929039001465,no_gesture
8753368,587,121.38602447509766,154.45474243164062,0.4596867263317108,-1631.4635009765625,1935.6097412109375,4.2682929039001465,no_gesture
8753387,588,121.68769836425781,154.45474243164062,0.4596867263317108,-1631.4635009765625,1935.6097412109375,4.2682929039001465,no_gesture
8753407,589,121.69727325439453,154.45474243164062,0.4596867263317108,-1631.4635009765625,1935.6097412109375,4.2682929039001465,no_gesture
8753447,591,121.97978973388672,154.45474243164062,0.4596867263317108,-1631.4635009765625,1935.6097412109375,4.2682929039001465,no_gesture
8753466,592,121.6158676147461,154.45474243164062,0.4596867263317108,-1631.4635009765625,1935.6097412109375,4.2682929039001465,no_gesture
8753506,594,121.9462661743164,154.45474243164062,0.4596867263317108,-1631.4635009765625,1935.6097412109375,4.2682929039001465,no_gesture
8753526,595,121.65896606445312,154.45474243164062,0.4596867263317108,-1631.4635009765625,1935.6097412109375,4.2682929039001465,no_gesture
8753565,597,121.8648681640625,154.45474243164062,0.4596867263317108,-1631.4635009765625,1935.6097412109375,4.2682929039001465,no_gesture
8753585,598,122.44425964355469,154.45474243164062,0.4596867263317108,-1631.4635009765625,1935.6097412109375,4.2682929039001465,no_gesture
8753625,600,122.19047546386719,154.45474243164062,0.4596867263317108,-1631.4635009765625,1935.6097412109375,4.2682929039001465,no_gesture
8753645,601,121.95584869384766,154.45474243164062,0.4596867263317108,-1631.4635009765625,1935.6097412109375,4.2682929039001465,swipe_up
8753704,604,122.34370422363281,154.45474243164062,0.4596867263317108,-1631.4635009765625,1935.6097412109375,4.2682929039001465,no_gesture
8753724,605,77.552978515625,134.84144592285156,0.9385270476341248,880.9146728515625,1732.6829833984375,0.6097561120986938,no_gesture
8753763,607,77.97435760498047,134.84144592285156,0.9385270476341248,880.9146728515625,1732.6829833984375,0.6097561120986938,no_gesture
8753783,608,78.03661346435547,134.84144592285156,0.9385270476341248,880.9146728515625,1732.6829833984375,0.6097561120986938,no_gesture
8753803,609,78.18025970458984,134.84144592285156,0.9385270476341248,880.9146728515625,1732.6829833984375,0.6097561120986938,no_gesture
8753823,610,77.38059997558594,134.84144592285156,0.9385270476341248,880.9146728515625,1732.6829833984375,0.6097561120986938,no_gesture
8753882,613,77.53861999511719,134.84144592285156,0.9385270476341248,880.9146728515625,1732.6829833984375,0.6097561120986938,no_gesture
8753902,614,77.77803802490234,134.84144592285156,0.9385270476341248,880.9146728515625,1732.6829833984375,0.6097561120986938,no_gesture
8753941,616,77.41411590576172,134.84144592285156,0.9385270476341248,880.9146728515625,1732.6829833984375,0.6097561120986938,no_gesture
8753961,617,77.98872375488281,134.84144592285156,0.9385270476341248,880.9146728515625,1732.6829833984375,0.6097561120986938,no_gesture
8754001,619,77.6535415649414,134.84144592285156,0.9385270476341248,880.9146728515625,1732.6829833984375,0.6097561120986938,no_gesture
8754021,620,77.94084167480469,134.84144592285156,0.9385270476341248,880.9146728515625,1732.6829833984375,0.6097561120986938,no_gesture
8754060,622,77.80677032470703,134.84144592285156,0.9385270476341248,880.9146728515625,1732.6829833984375,0.6097561120986938,no_gesture
8754080,623,78.10843658447266,134.84144592285156,0.9385270476341248,880.9146728515625,1732.6829833984375,0.6097561120986938,no_gesture
8754119,625,78.21378326416016,134.84144592285156,0.9385270476341248,880.9146728515625,1732.6829833984375,0.6097561120986938,no_gesture
8754139,626,78.35264587402344,134.84144592285156,0.9385270476341248,880.9146728515625,1732.6829833984375,0.6097561120986938,no_gesture
8754179,628,77.88816833496094,134.84144592285156,0.9385270476341248,880.9146728515625,1732.6829833984375,0.6097561120986938,no_gesture
8754199,629,77.5146713256836,134.84144592285156,0.9385270476341248,880.9146728515625,1732.6829833984375,0.6097561120986938,no_gesture
8754238,631,78.43883514404297,134.84144592285156,0.9385270476341248,880.9146728515625,1732.6829833984375,0.6097561120986938,no_gesture
8754258,632,77.64875030517578,134.84144592285156,0.9385270476341248,880.9146728515625,1732.6829833984375,0.6097561120986938,no_gesture
8754278,633,77.256103515625,134.84144592285156,0.9385270476341248,880.9146728515625,1732.6829833984375,0.6097561120986938,no_gesture
8754357,637,77.6535415649414,134.84144592285156,0.9385270476341248,880.9146728515625,1732.6829833984375,0.6097561120986938,no_gesture
8754377,638,77.93605041503906,134.84144592285156,0.9385270476341248,880.9146728515625,1732.6829833984375,0.6097561120986938,no_gesture
8754397,639,77.6200180053711,134.84144592285156,0.9385270476341248,880.9146728515625,1732.6829833984375,0.6097561120986938,no_gesture
8754476,643,78.29997253417969,134.84144592285156,0.9385270476341248,880.9146728515625,1732.6829833984375,0.6097561120986938,no_gesture
8754495,644,77.79718780517578,134.84144592285156,0.9385270476341248,880.9146728515625,1732.6829833984375,0.6097561120986938,no_gesture
8754535,646,77.24652099609375,134.84144592285156,0.9385270476341248,880.9146728515625,1732.6829833984375,0.6097561120986938,no_gesture
8754555,647,78.4436264038086,134.84144592285156,0.9385270476341248,880.9146728515625,1732.6829833984375,0.6097561120986938,no_gesture
8754575,648,78.3765869140625,134.84144592285156,0.9385270476341248,880.9146728515625,1732.6829833984375,0.6097561120986938,no_gesture
8754594,649,77.27046203613281,134.84144592285156,0.9385270476341248,880.9146728515625,1732.6829833984375,0.6097561120986938,no_gesture
8754674,653,78.40531921386719,134.84144592285156,0.9385270476341248,880.9146728515625,1732.6829833984375,0.6097561120986938,no_gesture
8754852,662,77.28004455566406,134.84144592285156,0.9385270476341248,880.9146728515625,1732.6829833984375,0.6097561120986938,no_gesture
8754871,663,77.84986114501953,134.84144592285156,0.9385270476341248,880.9146728515625,1732.6829833984375,0.6097561120986938,no_gesture
8754891,664,78.2664566040039,134.84144592285156,0.9385270476341248,880.9146728515625,1732.6829833984375,0.6097561120986938,no_gesture
8754911,665,77.8690185546875,134.84144592285156,0.9385270476341248,880.9146728515625,1732.6829833984375,0.6097561120986938,swipe_right
8754951,667,77.31835174560547,134.84144592285156,0.9385270476341248,880.9146728515625,1732.6829833984375,0.6097561120986938,no_gesture
8754970,668,77.94563293457031,134.84144592285156,0.9385270476341248,880.9146728515625,1732.6829833984375,0.6097561120986938,no_gesture
8754990,669,77.88338470458984,134.84144592285156,0.9385270476341248,880.9146728515625,1732.6829833984375,0.6097561120986938,no_gesture
8755030,671,77.72057342529297,134.84144592285156,0.9385270476341248,880.9146728515625,1732.6829833984375,0.6097561120986938,no_gesture
8755208,680,77.39974975585938,134.84144592285156,0.9385270476341248,880.9146728515625,1732.6829833984375,0.6097561120986938,no_gesture
8755228,681,78.3382797241211,134.84144592285156,0.9385270476341248,880.9146728515625,1732.6829833984375,0.6097561120986938,no_gesture
8755247,682,78.28560638427734,134.84144592285156,0.9385270476341248,880.9146728515625,1732.6829833984375,0.6097561120986938,no_gesture
8755267,683,77.57213592529297,134.84144592285156,0.9385270476341248,880.9146728515625,1732.6829833984375,0.6097561120986938,no_gesture
8755307,685,78.42446899414062,134.84144592285156,0.9385270476341248,880.9146728515625,1732.6829833984375,0.6097561120986938,no_gesture
8755327,686,77.61044311523438,134.84144592285156,0.9385270476341248,880.9146728515625,1732.6829833984375,0.6097561120986938,no_gesture
8755346,687,78.33348846435547,134.84144592285156,0.9385270476341248,880.9146728515625,1732.6829833984375,0.6097561120986938,no_gesture
8755386,689,77.73493957519531,134.84144592285156,0.9385270476341248,880.9146728515625,1732.6829833984375,0.6097561120986938,no_gesture
8755564,698,77.34229278564453,134.84144592285156,0.9385270476341248,880.9146728515625,1732.6829833984375,0.6097561120986938,no_gesture
8755584,699,78.38616180419922,134.84144592285156,0.9385270476341248,880.9146728515625,1732.6829833984375,0.6097561120986938,no_gesture
8755604,700,77.6583251953125,134.84144592285156,0.9385270476341248,880.9146728515625,1732.6829833984375,0.6097561120986938,no_gesture
8755623,701,78.17547607421875,134.84144592285156,0.9385270476341248,880.9146728515625,1732.6829833984375,0.6097561120986938,no_gesture
8755683,704,78.14195251464844,134.84144592285156,0.9385270476341248,880.9146728515625,1732.6829833984375,0.6097561120986938,no_gesture
8755703,705,77.22737121582031,134.84144592285156,0.9385270476341248,880.9146728515625,1732.6829833984375,0.6097561120986938,no_gesture
8755762,708,18.756175994873047,126.2606201171875,0.7996633648872375,1723.4146728515625,1670.243896484375,8.841464042663574,no_gesture
8755920,716,18.559850692749023,126.2606201171875,0.7996633648872375,1723.4146728515625,1670.243896484375,8.841464042663574,no_gesture
8755940,717,19.335573196411133,126.2606201171875,0.7996633648872375,1723.4146728515625,1670.243896484375,8.841464042663574,no_gesture
8755980,719,18.914194107055664,126.2606201171875,0.7996633648872375,1723.4146728515625,1670.243896484375,8.841464042663574,no_gesture
8755999,720,19.167978286743164,126.2606201171875,0.7996633648872375,1723.4146728515625,1670.243896484375,8.841464042663574,swipe_right
8756039,722,19.043479919433594,126.2606201171875,0.7996633648872375,1723.4146728515625,1670.243896484375,8.841464042663574,no_gesture
8756059,723,18.799272537231445,126.2606201171875,0.7996633648872375,1723.4146728515625,1670.243896484375,8.841464042663574,no_gesture
8756079,724,19.096153259277344,126.2606201171875,0.7996633648872375,1723.4146728515625,1670.243896484375,8.841464042663574,no_gesture
8756118,726,19.493589401245117,126.2606201171875,0.7996633648872375,1723.4146728515625,1670.243896484375,8.841464042663574,no_gesture
8756276,734,18.76096534729004,126.2606201171875,0.7996633648872375,1723.4146728515625,1670.243896484375,8.841464042663574,no_gesture
8756296,735,19.531896591186523,126.2606201171875,0.7996633648872375,1723.4146728515625,1670.243896484375,8.841464042663574,no_gesture
8756336,737,19.436128616333008,126.2606201171875,0.7996633648872375,1723.4146728515625,1670.243896484375,8.841464042663574,no_gesture
8756356,738,19.38345718383789,126.2606201171875,0.7996633648872375,1723.4146728515625,1670.243896484375,8.841464042663574,no_gesture
8756395,740,19.115306854248047,126.2606201171875,0.7996633648872375,1723.4146728515625,1670.243896484375,8.841464042663574,no_gesture
8756415,741,18.674774169921875,126.2606201171875,0.7996633648872375,1723.4146728515625,1670.243896484375,8.841464042663574,no_gesture
8756455,743,19.287689208984375,126.2606201171875,0.7996633648872375,1723.4146728515625,1670.243896484375,8.841464042663574,no_gesture
8756474,744,19.220651626586914,126.2606201171875,0.7996633648872375,1723.4146728515625,1670.243896484375,8.841464042663574,no_gesture
8756514,746,19.01953887939453,126.2606201171875,0.7996633648872375,1723.4146728515625,1670.243896484375,8.841464042663574,no_gesture
8756534,747,18.449718475341797,126.2606201171875,0.7996633648872375,1723.4146728515625,1670.243896484375,8.841464042663574,no_gesture
8756573,749,19.235015869140625,126.2606201171875,0.7996633648872375,1723.4146728515625,1670.243896484375,8.841464042663574,no_gesture
8756593,750,19.038692474365234,126.2606201171875,0.7996633648872375,1723.4146728515625,1670.243896484375,8.841464042663574,no_gesture
8756633,752,19.484012603759766,126.2606201171875,0.7996633648872375,1723.4146728515625,1670.243896484375,8.841464042663574,no_gesture
8756652,753,18.976442337036133,126.2606201171875,0.7996633648872375,1723.4146728515625,1670.243896484375,8.841464042663574,no_gesture
8756692,755,19.096153259277344,126.2606201171875,0.7996633648872375,1723.4146728515625,1670.243896484375,8.841464042663574,no_gesture
8756712,756,19.57020378112793,126.2606201171875,0.7996633648872375,1723.4146728515625,1670.243896484375,8.841464042663574,no_gesture
8756751,758,18.880674362182617,126.2606201171875,0.7996633648872375,1723.4146728515625,1670.243896484375,8.841464042663574,no_gesture
8756771,759,19.01474952697754,126.2606201171875,0.7996633648872375,1723.4146728515625,1670.243896484375,8.841464042663574,no_gesture
8756811,761,19.560626983642578,126.2606201171875,0.7996633648872375,1723.4146728515625,1670.243896484375,8.841464042663574,no_gesture
8756831,762,18.545486450195312,126.2606201171875,0.7996633648872375,1723.4146728515625,1670.243896484375,8.841464042663574,no_gesture
8756870,764,19.340360641479492,126.2606201171875,0.7996633648872375,1723.4146728515625,1670.243896484375,8.841464042663574,no_gesture
8756890,765,18.65083122253418,126.2606201171875,0.7996633648872375,1723.4146728515625,1670.243896484375,8.841464042663574,no_gesture
8756929,767,18.909404754638672,126.2606201171875,0.7996633648872375,1723.4146728515625,1670.243896484375,8.841464042663574,no_gesture
8756949,768,18.875886917114258,126.2606201171875,0.7996633648872375,1723.4146728515625,1670.243896484375,8.841464042663574,no_gesture
8756969,769,19.402610778808594,126.2606201171875,0.7996633648872375,1723.4146728515625,1670.243896484375,8.841464042663574,no_gesture
8757068,774,18.81842613220215,126.2606201171875,0.7996633648872375,1723.4146728515625,1670.243896484375,8.841464042663574,no_gesture
8757088,775,19.474435806274414,126.2606201171875,0.7996633648872375,1723.4146728515625,1670.243896484375,8.841464042663574,no_gesture
8757108,776,19.278112411499023,126.2606201171875,0.7996633648872375,1723.4146728515625,1670.243896484375,8.841464042663574,no_gesture
8757127,777,19.239805221557617,126.2606201171875,0.7996633648872375,1723.4146728515625,1670.243896484375,8.841464042663574,no_gesture
8757167,779,19.043479919433594,126.2606201171875,0.7996633648872375,1723.4146728515625,1670.243896484375,8.841464042663574,swipe_up
8757187,780,19.464859008789062,126.2606201171875,0.7996633648872375,1723.4146728515625,1670.243896484375,8.841464042663574,no_gesture
8757206,781,19.254169464111328,126.2606201171875,0.7996633648872375,1723.4146728515625,1670.243896484375,8.841464042663574,no_gesture
8757305,786,19.215862274169922,126.2606201171875,0.7996633648872375,1723.4146728515625,1670.243896484375,8.841464042663574,no_gesture
8757325,787,19.38345718383789,126.2606201171875,0.7996633648872375,1723.4146728515625,1670.243896484375,8.841464042663574,no_gesture
8757345,788,18.550273895263672,126.2606201171875,0.7996633648872375,1723.4146728515625,1670.243896484375,8.841464042663574,no_gesture
8757365,789,19.220651626586914,126.2606201171875,0.7996633648872375,1723.4146728515625,1670.243896484375,8.841464042663574,no_gesture
8757424,792,19.278112411499023,126.2606201171875,0.7996633648872375,1723.4146728515625,1670.243896484375,8.841464042663574,no_gesture
8757444,793,19.254169464111328,126.2606201171875,0.7996633648872375,1723.4146728515625,1670.243896484375,8.841464042663574,no_gesture
8757464,794,18.88546371459961,126.2606201171875,0.7996633648872375,1723.4146728515625,1670.243896484375,8.841464042663574,no_gesture
8757484,795,18.464082717895508,126.2606201171875,0.7996633648872375,1723.4146728515625,1670.243896484375,8.841464042663574,no_gesture
8757543,798,19.474435806274414,126.2606201171875,0.7996633648872375,1723.4146728515625,1670.243896484375,8.841464042663574,no_gesture
8757563,799,18.722658157348633,126.2606201171875,0.7996633648872375,1723.4146728515625,1670.243896484375,8.841464042663574,no_gesture
8757582,800,19.38824462890625,126.2606201171875,0.7996633648872375,1723.4146728515625,1670.243896484375,8.841464042663574,no_gesture
8757622,802,18.397045135498047,126.2606201171875,0.7996633648872375,1723.4146728515625,1670.243896484375,8.841464042663574,no_gesture
8757642,803,19.484012603759766,126.2606201171875,0.7996633648872375,1723.4146728515625,1670.243896484375,8.841464042663574,no_gesture
8757701,806,18.387468338012695,126.2606201171875,0.7996633648872375,1723.4146728515625,1670.243896484375,8.841464042663574,no_gesture
8757860,814,-133.4958953857422,138.51893615722656,0.1628057211637497,-227.256103515625,1779.51220703125,10.670731544494629,no_gesture
8757899,816,-132.39456176757812,138.51893615722656,0.1628057211637497,-227.256103515625,1779.51220703125,10.670731544494629,no_gesture
8757919,817,-133.127197265625,138.51893615722656,0.1628057211637497,-227.256103515625,1779.51220703125,10.670731544494629,no_gesture
8757939,818,-132.59567260742188,138.51893615722656,0.1628057211637497,-227.256103515625,1779.51220703125,10.670731544494629,no_gesture
8757978,820,-132.79200744628906,138.51893615722656,0.1628057211637497,-227.256103515625,1779.51220703125,10.670731544494629,no_gesture
8758137,828,-132.74412536621094,138.51893615722656,0.1628057211637497,-227.256103515625,1779.51220703125,10.670731544494629,no_gesture
8758156,829,-132.61004638671875,138.51893615722656,0.1628057211637497,-227.256103515625,1779.51220703125,10.670731544494629,no_gesture
8758196,831,-132.76806640625,138.51893615722656,0.1628057211637497,-227.256103515625,1779.51220703125,10.670731544494629,no_gesture
8758216,832,-133.25648498535156,138.51893615722656,0.1628057211637497,-227.256103515625,1779.51220703125,10.670731544494629,swipe_right
8758255,834,-133.08888244628906,138.51893615722656,0.1628057211637497,-227.256103515625,1779.51220703125,10.670731544494629,no_gesture
8758275,835,-133.51026916503906,138.51893615722656,0.1628057211637497,-227.256103515625,1779.51220703125,10.670731544494629,no_gesture
8758295,836,-133.34266662597656,138.51893615722656,0.1628057211637497,-227.256103515625,1779.51220703125,10.670731544494629,no_gesture
8758334,838,-132.74412536621094,138.51893615722656,0.1628057211637497,-227.256103515625,1779.51220703125,10.670731544494629,no_gesture
8758513,847,-132.9452362060547,138.51893615722656,0.1628057211637497,-227.256103515625,1779.51220703125,10.670731544494629,no_gesture
8758532,848,-133.04579162597656,138.51893615722656,0.1628057211637497,-227.256103515625,1779.51220703125,10.670731544494629,no_gesture
8758552,849,-133.275634765625,138.51893615722656,0.1628057211637497,-227.256103515625,1779.51220703125,10.670731544494629,no_gesture
8758572,850,-133.25169372558594,138.51893615722656,0.1628057211637497,-227.256103515625,1779.51220703125,10.670731544494629,no_gesture
8758611,852,-132.40414428710938,138.51893615722656,0.1628057211637497,-227.256103515625,1779.51220703125,10.670731544494629,no_gesture
8758631,853,-132.76327514648438,138.51893615722656,0.1628057211637497,-227.256103515625,1779.51220703125,10.670731544494629,no_gesture
8758651,854,-133.10325622558594,138.51893615722656,0.1628057211637497,-227.256103515625,1779.51220703125,10.670731544494629,no_gesture
8758691,856,-133.01226806640625,138.51893615722656,0.1628057211637497,-227.256103515625,1779.51220703125,10.670731544494629,no_gesture
8758710,857,-133.19422912597656,138.51893615722656,0.1628057211637497,-227.256103515625,1779.51220703125,10.670731544494629,no_gesture
8758928,868,-133.6012420654297,138.51893615722656,0.1628057211637497,-227.256103515625,1779.51220703125,10.670731544494629,no_gesture
8758948,869,-132.9452362060547,138.51893615722656,0.1628057211637497,-227.256103515625,1779.51220703125,10.670731544494629,no_gesture
8758968,870,-132.47596740722656,138.51893615722656,0.1628057211637497,-227.256103515625,1779.51220703125,10.670731544494629,no_gesture
8758987,871,-132.408935546875,138.51893615722656,0.1628057211637497,-227.256103515625,1779.51220703125,10.670731544494629,no_gesture
8759007,872,-133.61082458496094,138.51893615722656,0.1628057211637497,-227.256103515625,1779.51220703125,10.670731544494629,no_gesture
8759047,874,-133.44322204589844,138.51893615722656,0.1628057211637497,-227.256103515625,1779.51220703125,10.670731544494629,no_gesture
8759225,883,-133.25169372558594,138.51893615722656,0.1628057211637497,-227.256103515625,1779.51220703125,10.670731544494629,no_gesture
8759245,884,-132.6722869873047,138.51893615722656,0.1628057211637497,-227.256103515625,1779.51220703125,10.670731544494629,no_gesture
8759265,885,-132.58131408691406,138.51893615722656,0.1628057211637497,-227.256103515625,1779.51220703125,10.670731544494629,no_gesture
8759284,886,-133.02664184570312,138.51893615722656,0.1628057211637497,-227.256103515625,1779.51220703125,10.670731544494629,no_gesture
8759344,889,-133.32351684570312,138.51893615722656,0.1628057211637497,-227.256103515625,1779.51220703125,10.670731544494629,no_gesture
8759363,890,-132.60525512695312,138.51893615722656,0.1628057211637497,-227.256103515625,1779.51220703125,10.670731544494629,swipe_right
8759383,891,-133.04579162597656,138.51893615722656,0.1628057211637497,-227.256103515625,1779.51220703125,10.670731544494629,no_gesture
8759403,892,-133.15591430664062,138.51893615722656,0.1628057211637497,-227.256103515625,1779.51220703125,10.670731544494629,no_gesture
8759462,895,-132.71060180664062,138.51893615722656,0.1628057211637497,-227.256103515625,1779.51220703125,10.670731544494629,no_gesture
8759482,896,-132.55258178710938,138.51893615722656,0.1628057211637497,-227.256103515625,1779.51220703125,10.670731544494629,no_gesture
8759522,898,-133.5437774658203,138.51893615722656,0.1628057211637497,-227.256103515625,1779.51220703125,10.670731544494629,no_gesture
8759542,899,-132.72975158691406,138.51893615722656,0.1628057211637497,-227.256103515625,1779.51220703125,10.670731544494629,no_gesture
8759581,901,-133.127197265625,138.51893615722656,0.1628057211637497,-227.256103515625,1779.51220703125,10.670731544494629,no_gesture
8759601,902,-133.4671630859375,138.51893615722656,0.1628057211637497,-227.256103515625,1779.51220703125,10.670731544494629,no_gesture
8759640,904,-132.89256286621094,138.51893615722656,0.1628057211637497,-227.256103515625,1779.51220703125,10.670731544494629,no_gesture
8759660,905,-132.4951171875,138.51893615722656,0.1628057211637497,-227.256103515625,1779.51220703125,10.670731544494629,no_gesture
8759700,907,-132.8877716064453,138.51893615722656,0.1628057211637497,-227.256103515625,1779.51220703125,10.670731544494629,no_gesture
8759720,908,-10.65898609161377,-155.68057250976562,1.1061211824417114,397.8658752441406,1904.3902587890625,4.5731706619262695,no_gesture
8759759,910,-10.481815338134766,-155.68057250976562,1.1061211824417114,397.8658752441406,1904.3902587890625,4.5731706619262695,no_gesture
8759779,911,-10.644620895385742,-155.68057250976562,1.1061211824417114,397.8658752441406,1904.3902587890625,4.5731706619262695,no_gesture
8759819,913,-10.41956615447998,-155.68057250976562,1.1061211824417114,397.8658752441406,1904.3902587890625,4.5731706619262695,no_gesture
8759838,914,-10.137049674987793,-155.68057250976562,1.1061211824417114,397.8658752441406,1904.3902587890625,4.5731706619262695,no_gesture
8759878,916,-10.812214851379395,-155.68057250976562,1.1061211824417114,397.8658752441406,1904.3902587890625,4.5731706619262695,no_gesture
8759898,917,-10.903194427490234,-155.68057250976562,1.1061211824417114,397.8658752441406,1904.3902587890625,4.5731706619262695,no_gesture
8759937,919,-10.81700325012207,-155.68057250976562,1.1061211824417114,397.8658752441406,1904.3902587890625,4.5731706619262695,no_gesture
8759957,920,-10.529699325561523,-155.68057250976562,1.1061211824417114,397.8658752441406,1904.3902587890625,4.5731706619262695,no_gesture
8759997,922,-10.218452453613281,-155.68057250976562,1.1061211824417114,397.8658752441406,1904.3902587890625,4.5731706619262695,no_gesture
8760016,923,-10.84094524383545,-155.68057250976562,1.1061211824417114,397.8658752441406,1904.3902587890625,4.5731706619262695,no_gesture
8760056,925,-9.825803756713867,-155.68057250976562,1.1061211824417114,397.8658752441406,1904.3902587890625,4.5731706619262695,no_gesture
8760076,926,-10.802638053894043,-155.68057250976562,1.1061211824417114,397.8658752441406,1904.3902587890625,4.5731706619262695,no_gesture
8760115,928,-10.807426452636719,-155.68057250976562,1.1061211824417114,397.8658752441406,1904.3902587890625,4.5731706619262695,no_gesture
8760135,929,-10.970232009887695,-155.68057250976562,1.1061211824417114,397.8658752441406,1904.3902587890625,4.5731706619262695,no_gesture
8760175,931,-9.974244117736816,-155.68057250976562,1.1061211824417114,397.8658752441406,1904.3902587890625,4.5731706619262695,no_gesture
8760195,932,-10.132261276245117,-155.68057250976562,1.1061211824417114,397.8658752441406,1904.3902587890625,4.5731706619262695,no_gesture
8760234,934,-10.299856185913086,-155.68057250976562,1.1061211824417114,397.8658752441406,1904.3902587890625,4.5731706619262695,no_gesture
8760254,935,-10.453084945678711,-155.68057250976562,1.1061211824417114,397.8658752441406,1904.3902587890625,4.5731706619262695,no_gesture
8760294,937,-10.879252433776855,-155.68057250976562,1.1061211824417114,397.8658752441406,1904.3902587890625,4.5731706619262695,no_gesture
8760313,938,-10.711658477783203,-155.68057250976562,1.1061211824417114,397.8658752441406,1904.3902587890625,4.5731706619262695,no_gesture
8760353,940,-10.462661743164062,-155.68057250976562,1.1061211824417114,397.8658752441406,1904.3902587890625,4.5731706619262695,no_gesture
8760373,941,-9.998186111450195,-155.68057250976562,1.1061211824417114,397.8658752441406,1904.3902587890625,4.5731706619262695,no_gesture
8760412,943,-11.022904396057129,-155.68057250976562,1.1061211824417114,397.8658752441406,1904.3902587890625,4.5731706619262695,no_gesture
8760432,944,-11.003750801086426,-155.68057250976562,1.1061211824417114,397.8658752441406,1904.3902587890625,4.5731706619262695,no_gesture
8760472,946,-10.15141487121582,-155.68057250976562,1.1061211824417114,397.8658752441406,1904.3902587890625,4.5731706619262695,no_gesture
8760491,947,-9.907206535339355,-155.68057250976562,1.1061211824417114,397.8658752441406,1904.3902587890625,4.5731706619262695,no_gesture
8760511,948,-10.496180534362793,-155.68057250976562,1.1061211824417114,397.8658752441406,1904.3902587890625,4.5731706619262695,no_gesture
8760551,950,-10.917559623718262,-155.68057250976562,1.1061211824417114,397.8658752441406,1904.3902587890625,4.5731706619262695,no_gesture
8760729,959,-10.031704902648926,-155.68057250976562,1.1061211824417114,397.8658752441406,1904.3902587890625,4.5731706619262695,no_gesture
8760749,960,-10.951078414916992,-155.68057250976562,1.1061211824417114,397.8658752441406,1904.3902587890625,4.5731706619262695,no_gesture
8760768,961,-10.38604736328125,-155.68057250976562,1.1061211824417114,397.8658752441406,1904.3902587890625,4.5731706619262695,no_gesture
8760788,962,-10.888829231262207,-155.68057250976562,1.1061211824417114,397.8658752441406,1904.3902587890625,4.5731706619262695,swipe_up
8760828,964,-10.146626472473145,-155.68057250976562,1.1061211824417114,397.8658752441406,1904.3902587890625,4.5731706619262695,no_gesture
8760848,965,-9.864110946655273,-155.68057250976562,1.1061211824417114,397.8658752441406,1904.3902587890625,4.5731706619262695,no_gesture
8760867,966,-10.678139686584473,-155.68057250976562,1.1061211824417114,397.8658752441406,1904.3902587890625,4.5731706619262695,no_gesture
8760907,968,-10.309432983398438,-155.68057250976562,1.1061211824417114,397.8658752441406,1904.3902587890625,4.5731706619262695,no_gesture
8761085,977,-10.098742485046387,-155.68057250976562,1.1061211824417114,397.8658752441406,1904.3902587890625,4.5731706619262695,no_gesture
8761105,978,-9.821015357971191,-155.68057250976562,1.1061211824417114,397.8658752441406,1904.3902587890625,4.5731706619262695,no_gesture
8761125,979,-10.041281700134277,-155.68057250976562,1.1061211824417114,397.8658752441406,1904.3902587890625,4.5731706619262695,no_gesture
8761144,980,-10.376470565795898,-155.68057250976562,1.1061211824417114,397.8658752441406,1904.3902587890625,4.5731706619262695,no_gesture
8761204,983,-10.036493301391602,-155.68057250976562,1.1061211824417114,397.8658752441406,1904.3902587890625,4.5731706619262695,no_gesture
8761224,984,-9.86889934539795,-155.68057250976562,1.1061211824417114,397.8658752441406,1904.3902587890625,4.5731706619262695,no_gesture
8761243,985,-9.907206535339355,-155.68057250976562,1.1061211824417114,397.8658752441406,1904.3902587890625,4.5731706619262695,no_gesture
8761263,986,-9.90241813659668,-155.68057250976562,1.1061211824417114,397.8658752441406,1904.3902587890625,4.5731706619262695,no_gesture
8761441,995,-10.60152530670166,-155.68057250976562,1.1061211824417114,397.8658752441406,1904.3902587890625,4.5731706619262695,no_gesture
8761461,996,-9.959878921508789,-155.68057250976562,1.1061211824417114,397.8658752441406,1904.3902587890625,4.5731706619262695,no_gesture
8761501,998,-9.93593692779541,-155.68057250976562,1.1061211824417114,397.8658752441406,1904.3902587890625,4.5731706619262695,no_gesture
8761520,999,-9.959878921508789,-155.68057250976562,1.1061211824417114,397.8658752441406,1904.3902587890625,4.5731706619262695,no_gesture
8761560,1001,-9.864110946655273,-155.68057250976562,1.1061211824417114,397.8658752441406,1904.3902587890625,4.5731706619262695,no_gesture
8761580,1002,-10.730812072753906,-155.68057250976562,1.1061211824417114,397.8658752441406,1904.3902587890625,4.5731706619262695,no_gesture
8761600,1003,-10.769119262695312,-155.68057250976562,1.1061211824417114,397.8658752441406,1904.3902587890625,4.5731706619262695,no_gesture
8761639,1005,-9.940725326538086,-155.68057250976562,1.1061211824417114,397.8658752441406,1904.3902587890625,4.5731706619262695,no_gesture
8761659,1006,-10.395624160766602,-155.68057250976562,1.1061211824417114,397.8658752441406,1904.3902587890625,4.5731706619262695,no_gesture
8761877,1017,149.38861083984375,99.2923355102539,0.06703764945268631,1160.06103515625,1248.780517578125,14.57317066192627,no_gesture
8761896,1018,148.65599060058594,99.2923355102539,0.06703764945268631,1160.06103515625,1248.780517578125,14.57317066192627,no_gesture
8761916,1019,148.83316040039062,99.2923355102539,0.06703764945268631,1160.06103515625,1248.780517578125,14.57317066192627,no_gesture
8761936,1020,149.42213439941406,99.2923355102539,0.06703764945268631,1160.06103515625,1248.780517578125,14.57317066192627,no_gesture
8761995,1023,148.96722412109375,99.2923355102539,0.06703764945268631,1160.06103515625,1248.780517578125,14.57317066192627,swipe_up
8762173,1032,149.39340209960938,99.2923355102539,0.06703764945268631,1160.06103515625,1248.780517578125,14.57317066192627,no_gesture
8762193,1033,149.2162322998047,99.2923355102539,0.06703764945268631,1160.06103515625,1248.780517578125,14.57317066192627,no_gesture
8762213,1034,149.43649291992188,99.2923355102539,0.06703764945268631,1160.06103515625,1248.780517578125,14.57317066192627,no_gesture
8762233,1035,149.23538208007812,99.2923355102539,0.06703764945268631,1160.06103515625,1248.780517578125,14.57317066192627,no_gesture
8762253,1036,149.0821533203125,99.2923355102539,0.06703764945268631,1160.06103515625,1248.780517578125,14.57317066192627,no_gesture
8762332,1040,149.33114624023438,99.2923355102539,0.06703764945268631,1160.06103515625,1248.780517578125,14.57317066192627,no_gesture
8762352,1041,148.6894989013672,99.2923355102539,0.06703764945268631,1160.06103515625,1248.780517578125,14.57317066192627,no_gesture
8762371,1042,149.23538208007812,99.2923355102539,0.06703764945268631,1160.06103515625,1248.780517578125,14.57317066192627,no_gesture
8762450,1046,148.76611328125,99.2923355102539,0.06703764945268631,1160.06103515625,1248.780517578125,14.57317066192627,no_gesture
8762470,1047,149.1156768798828,99.2923355102539,0.06703764945268631,1160.06103515625,1248.780517578125,14.57317066192627,no_gesture
8762510,1049,148.3351593017578,99.2923355102539,0.06703764945268631,1160.06103515625,1248.780517578125,14.57317066192627,no_gesture
8762530,1050,148.5841522216797,99.2923355102539,0.06703764945268631,1160.06103515625,1248.780517578125,14.57317066192627,no_gesture
8762569,1052,148.9624481201172,99.2923355102539,0.06703764945268631,1160.06103515625,1248.780517578125,14.57317066192627,no_gesture
8762589,1053,148.71343994140625,99.2923355102539,0.06703764945268631,1160.06103515625,1248.780517578125,14.57317066192627,no_gesture
8762629,1055,149.1539764404297,99.2923355102539,0.06703764945268631,1160.06103515625,1248.780517578125,14.57317066192627,no_gesture
8762648,1056,149.21144104003906,99.2923355102539,0.06703764945268631,1160.06103515625,1248.780517578125,14.57317066192627,no_gesture
8762668,1057,148.77090454101562,99.2923355102539,0.06703764945268631,1160.06103515625,1248.780517578125,14.57317066192627,no_gesture
8762826,1065,148.55064392089844,99.2923355102539,0.06703764945268631,1160.06103515625,1248.780517578125,14.57317066192627,no_gesture
8762846,1066,149.1156768798828,99.2923355102539,0.06703764945268631,1160.06103515625,1248.780517578125,14.57317066192627,no_gesture
8762866,1067,149.3024139404297,99.2923355102539,0.06703764945268631,1160.06103515625,1248.780517578125,14.57317066192627,no_gesture
8762886,1068,148.85231018066406,99.2923355102539,0.06703764945268631,1160.06103515625,1248.780517578125,14.57317066192627,no_gesture
8762925,1070,149.0821533203125,99.2923355102539,0.06703764945268631,1160.06103515625,1248.780517578125,14.57317066192627,no_gesture
8762945,1071,149.16835021972656,99.2923355102539,0.06703764945268631,1160.06103515625,1248.780517578125,14.57317066192627,no_gesture
8762965,1072,149.00074768066406,99.2923355102539,0.06703764945268631,1160.06103515625,1248.780517578125,14.57317066192627,no_gesture
8763064,1077,148.41177368164062,99.2923355102539,0.06703764945268631,1160.06103515625,1248.780517578125,14.57317066192627,no_gesture
8763084,1078,148.81878662109375,99.2923355102539,0.06703764945268631,1160.06103515625,1248.780517578125,14.57317066192627,no_gesture
8763103,1079,148.66555786132812,99.2923355102539,0.06703764945268631,1160.06103515625,1248.780517578125,14.57317066192627,no_gesture
8763183,1083,149.00074768066406,99.2923355102539,0.06703764945268631,1160.06103515625,1248.780517578125,14.57317066192627,no_gesture
8763202,1084,148.80442810058594,99.2923355102539,0.06703764945268631,1160.06103515625,1248.780517578125,14.57317066192627,swipe_up
8763242,1086,149.06300354003906,99.2923355102539,0.06703764945268631,1160.06103515625,1248.780517578125,14.57317066192627,no_gesture
8763262,1087,149.1587677001953,99.2923355102539,0.06703764945268631,1160.06103515625,1248.780517578125,14.57317066192627,no_gesture
8763301,1089,148.88583374023438,99.2923355102539,0.06703764945268631,1160.06103515625,1248.780517578125,14.57317066192627,no_gesture
8763321,1090,148.52191162109375,99.2923355102539,0.06703764945268631,1160.06103515625,1248.780517578125,14.57317066192627,no_gesture
8763361,1092,148.72781372070312,99.2923355102539,0.06703764945268631,1160.06103515625,1248.780517578125,14.57317066192627,no_gesture
8763381,1093,148.4405059814453,99.2923355102539,0.06703764945268631,1160.06103515625,1248.780517578125,14.57317066192627,no_gesture
8763420,1095,149.32635498046875,99.2923355102539,0.06703764945268631,1160.06103515625,1248.780517578125,14.57317066192627,no_gesture
8763440,1096,149.5274658203125,99.2923355102539,0.06703764945268631,1160.06103515625,1248.780517578125,14.57317066192627,no_gesture
8763460,1097,148.6894989013672,99.2923355102539,0.06703764945268631,1160.06103515625,1248.780517578125,14.57317066192627,no_gesture
8763499,1099,148.5027618408203,99.2923355102539,0.06703764945268631,1160.06103515625,1248.780517578125,14.57317066192627,no_gesture
8763737,1111,-129.957275390625,120.13146209716797,0.8810662031173706,-290.7317199707031,1498.53662109375,13.109756469726562,no_gesture
8763757,1112,-130.4792022705078,120.13146209716797,0.8810662031173706,-290.7317199707031,1498.53662109375,13.109756469726562,no_gesture
8763776,1113,-129.94769287109375,120.13146209716797,0.8810662031173706,-290.7317199707031,1498.53662109375,13.109756469726562,no_gesture
8763796,1114,-130.81439208984375,120.13146209716797,0.8810662031173706,-290.7317199707031,1498.53662109375,13.109756469726562,no_gesture
8763816,1115,-130.2828826904297,120.13146209716797,0.8810662031173706,-290.7317199707031,1498.53662109375,13.109756469726562,no_gesture
8763855,1117,-130.68031311035156,120.13146209716797,0.8810662031173706,-290.7317199707031,1498.53662109375,13.109756469726562,no_gesture
8763954,1122,-130.41217041015625,120.13146209716797,0.8810662031173706,-290.7317199707031,1498.53662109375,13.109756469726562,no_gesture
8763974,1123,-130.78565979003906,120.13146209716797,0.8810662031173706,-290.7317199707031,1498.53662109375,13.109756469726562,no_gesture
8764014,1125,-130.19668579101562,120.13146209716797,0.8810662031173706,-290.7317199707031,1498.53662109375,13.109756469726562,no_gesture
8764034,1126,-130.5222930908203,120.13146209716797,0.8810662031173706,-290.7317199707031,1498.53662109375,13.109756469726562,no_gesture
8764073,1128,-130.42173767089844,120.13146209716797,0.8810662031173706,-290.7317199707031,1498.53662109375,13.109756469726562,no_gesture
8764093,1129,-130.7473602294922,120.13146209716797,0.8810662031173706,-290.7317199707031,1498.53662109375,13.109756469726562,swipe_up
8764132,1131,-130.81918334960938,120.13146209716797,0.8810662031173706,-290.7317199707031,1498.53662109375,13.109756469726562,no_gesture
8764152,1132,-130.06739807128906,120.13146209716797,0.8810662031173706,-290.7317199707031,1498.53662109375,13.109756469726562,no_gesture
8764172,1133,-131.0059356689453,120.13146209716797,0.8810662031173706,-290.7317199707031,1498.53662109375,13.109756469726562,no_gesture
8764212,1135,-131.02508544921875,120.13146209716797,0.8810662031173706,-290.7317199707031,1498.53662109375,13.109756469726562,no_gesture
8764390,1144,-130.00515747070312,120.13146209716797,0.8810662031173706,-290.7317199707031,1498.53662109375,13.109756469726562,no_gesture
8764410,1145,-130.2685089111328,120.13146209716797,0.8810662031173706,-290.7317199707031,1498.53662109375,13.109756469726562,no_gesture
8764429,1146,-131.08255004882812,120.13146209716797,0.8810662031173706,-290.7317199707031,1498.53662109375,13.109756469726562,no_gesture
8764449,1147,-130.14401245117188,120.13146209716797,0.8810662031173706,-290.7317199707031,1498.53662109375,13.109756469726562,no_gesture
8764489,1149,-130.46963500976562,120.13146209716797,0.8810662031173706,-290.7317199707031,1498.53662109375,13.109756469726562,no_gesture
8764508,1150,-130.91494750976562,120.13146209716797,0.8810662031173706,-290.7317199707031,1498.53662109375,13.109756469726562,no_gesture
8764528,1151,-130.26373291015625,120.13146209716797,0.8810662031173706,-290.7317199707031,1498.53662109375,13.109756469726562,no_gesture
8764568,1153,-129.97642517089844,120.13146209716797,0.8810662031173706,-290.7317199707031,1498.53662109375,13.109756469726562,no_gesture
8764746,1162,-130.7952423095703,120.13146209716797,0.8810662031173706,-290.7317199707031,1498.53662109375,13.109756469726562,no_gesture
8764766,1163,-130.6276397705078,120.13146209716797,0.8810662031173706,-290.7317199707031,1498.53662109375,13.109756469726562,no_gesture
8764786,1164,-130.6851043701172,120.13146209716797,0.8810662031173706,-290.7317199707031,1498.53662109375,13.109756469726562,no_gesture
8764805,1165,-130.06739807128906,120.13146209716797,0.8810662031173706,-290.7317199707031,1498.53662109375,13.109756469726562,no_gesture
8764825,1166,-131.02029418945312,120.13146209716797,0.8810662031173706,-290.7317199707031,1498.53662109375,13.109756469726562,no_gesture
8764845,1167,-130.50314331054688,120.13146209716797,0.8810662031173706,-290.7317199707031,1498.53662109375,13.109756469726562,no_gesture
8764944,1172,-130.17274475097656,120.13146209716797,0.8810662031173706,-290.7317199707031,1498.53662109375,13.109756469726562,no_gesture
8765043,1177,-130.05783081054688,120.13146209716797,0.8810662031173706,-290.7317199707031,1498.53662109375,13.109756469726562,no_gesture
8765063,1178,-130.74256896972656,120.13146209716797,0.8810662031173706,-290.7317199707031,1498.53662109375,13.109756469726562,no_gesture
8765082,1179,-130.4792022705078,120.13146209716797,0.8810662031173706,-290.7317199707031,1498.53662109375,13.109756469726562,no_gesture
8765161,1183,-130.13922119140625,120.13146209716797,0.8810662031173706,-290.7317199707031,1498.53662109375,13.109756469726562,no_gesture
8765181,1184,-130.21583557128906,120.13146209716797,0.8810662031173706,-290.7317199707031,1498.53662109375,13.109756469726562,no_gesture
8765221,1186,-130.3882293701172,120.13146209716797,0.8810662031173706,-290.7317199707031,1498.53662109375,13.109756469726562,no_gesture
8765241,1187,-130.105712890625,120.13146209716797,0.8810662031173706,-290.7317199707031,1498.53662109375,13.109756469726562,no_gesture
8765280,1189,-130.34034729003906,120.13146209716797,0.8810662031173706,-290.7317199707031,1498.53662109375,13.109756469726562,no_gesture
8765300,1190,-130.62286376953125,120.13146209716797,0.8810662031173706,-290.7317199707031,1498.53662109375,13.109756469726562,no_gesture
8765320,1191,-131.0777587890625,120.13146209716797,0.8810662031173706,-290.7317199707031,1498.53662109375,13.109756469726562,no_gesture
8765399,1195,-130.61807250976562,120.13146209716797,0.8810662031173706,-290.7317199707031,1498.53662109375,13.109756469726562,no_gesture
8765419,1196,-130.4744110107422,120.13146209716797,0.8810662031173706,-290.7317199707031,1498.53662109375,13.109756469726562,no_gesture
8765458,1198,-130.55581665039062,120.13146209716797,0.8810662031173706,-290.7317199707031,1498.53662109375,13.109756469726562,no_gesture
8765478,1199,-130.56060791015625,120.13146209716797,0.8810662031173706,-290.7317199707031,1498.53662109375,13.109756469726562,no_gesture
8765518,1201,-131.15916442871094,120.13146209716797,0.8810662031173706,-290.7317199707031,1498.53662109375,13.109756469726562,no_gesture
8765537,1202,-131.1495819091797,120.13146209716797,0.8810662031173706,-290.7317199707031,1498.53662109375,13.109756469726562,no_gesture
8765577,1204,-130.72341918945312,120.13146209716797,0.8810662031173706,-290.7317199707031,1498.53662109375,13.109756469726562,no_gesture
8765597,1205,-130.12965393066406,120.13146209716797,0.8810662031173706,-290.7317199707031,1498.53662109375,13.109756469726562,no_gesture
8765636,1207,-130.34034729003906,120.13146209716797,0.8810662031173706,-290.7317199707031,1498.53662109375,13.109756469726562,no_gesture
8765656,1208,-130.105712890625,120.13146209716797,0.8810662031173706,-290.7317199707031,1498.53662109375,13.109756469726562,no_gesture
8765691,1210,142.35923767089844,147.09974670410156,0.7422025203704834,-851.5853881835938,1701.4635009765625,7.012195110321045,no_gesture
8765716,1211,143.25466918945312,147.09974670410156,0.7422025203704834,-851.5853881835938,1701.4635009765625,7.012195110321045,no_gesture
8765755,1213,142.93862915039062,147.09974670410156,0.7422025203704834,-851.5853881835938,1701.4635009765625,7.012195110321045,no_gesture
8765775,1214,142.2347412109375,147.09974670410156,0.7422025203704834,-851.5853881835938,1701.4635009765625,7.012195110321045,no_gesture
8765815,1216,142.61302185058594,147.09974670410156,0.7422025203704834,-851.5853881835938,1701.4635009765625,7.012195110321045,no_gesture
8765834,1217,142.51246643066406,147.09974670410156,0.7422025203704834,-851.5853881835938,1701.4635009765625,7.012195110321045,no_gesture
8765874,1219,142.52682495117188,147.09974670410156,0.7422025203704834,-851.5853881835938,1701.4635009765625,7.012195110321045,no_gesture
8765894,1220,143.36001586914062,147.09974670410156,0.7422025203704834,-851.5853881835938,1701.4635009765625,7.012195110321045,no_gesture
8765933,1222,142.54119873046875,147.09974670410156,0.7422025203704834,-851.5853881835938,1701.4635009765625,7.012195110321045,no_gesture
8765953,1223,142.7997589111328,147.09974670410156,0.7422025203704834,-851.5853881835938,1701.4635009765625,7.012195110321045,swipe_up
8765993,1225,143.13973999023438,147.09974670410156,0.7422025203704834,-851.5853881835938,1701.4635009765625,7.012195110321045,no_gesture
8766012,1226,142.27783203125,147.09974670410156,0.7422025203704834,-851.5853881835938,1701.4635009765625,7.012195110321045,no_gesture
8766052,1228,142.2060089111328,147.09974670410156,0.7422025203704834,-851.5853881835938,1701.4635009765625,7.012195110321045,no_gesture
8766072,1229,142.38796997070312,147.09974670410156,0.7422025203704834,-851.5853881835938,1701.4635009765625,7.012195110321045,no_gesture
8766092,1230,143.27381896972656,147.09974670410156,0.7422025203704834,-851.5853881835938,1701.4635009765625,7.012195110321045,no_gesture
8766171,1234,143.0391845703125,147.09974670410156,0.7422025203704834,-851.5853881835938,1701.4635009765625,7.012195110321045,no_gesture
8766191,1235,142.22515869140625,147.09974670410156,0.7422025203704834,-851.5853881835938,1701.4635009765625,7.012195110321045,no_gesture
8766230,1237,143.2211456298828,147.09974670410156,0.7422025203704834,-851.5853881835938,1701.4635009765625,7.012195110321045,no_gesture
8766250,1238,142.61302185058594,147.09974670410156,0.7422025203704834,-851.5853881835938,1701.4635009765625,7.012195110321045,no_gesture
8766289,1240,142.63217163085938,147.09974670410156,0.7422025203704834,-851.5853881835938,1701.4635009765625,7.012195110321045,no_gesture
8766309,1241,143.40789794921875,147.09974670410156,0.7422025203704834,-851.5853881835938,1701.4635009765625,7.012195110321045,no_gesture
8766349,1243,143.31690979003906,147.09974670410156,0.7422025203704834,-851.5853881835938,1701.4635009765625,7.012195110321045,no_gesture
8766369,1244,142.785400390625,147.09974670410156,0.7422025203704834,-851.5853881835938,1701.4635009765625,7.012195110321045,no_gesture
8766388,1245,142.92904663085938,147.09974670410156,0.7422025203704834,-851.5853881835938,1701.4635009765625,7.012195110321045,no_gesture
8766428,1247,142.77581787109375,147.09974670410156,0.7422025203704834,-851.5853881835938,1701.4635009765625,7.012195110321045,no_gesture
8766606,1256,142.41668701171875,147.09974670410156,0.7422025203704834,-851.5853881835938,1701.4635009765625,7.012195110321045,no_gesture
8766626,1257,143.05833435058594,147.09974670410156,0.7422025203704834,-851.5853881835938,1701.4635009765625,7.012195110321045,no_gesture
8766646,1258,142.33050537109375,147.09974670410156,0.7422025203704834,-851.5853881835938,1701.4635009765625,7.012195110321045,no_gesture
8766665,1259,142.70399475097656,147.09974670410156,0.7422025203704834,-851.5853881835938,1701.4635009765625,7.012195110321045,no_gesture
8766705,1261,142.53640747070312,147.09974670410156,0.7422025203704834,-851.5853881835938,1701.4635009765625,7.012195110321045,no_gesture
8766725,1262,143.07749938964844,147.09974670410156,0.7422025203704834,-851.5853881835938,1701.4635009765625,7.012195110321045,no_gesture
8766745,1263,143.22593688964844,147.09974670410156,0.7422025203704834,-851.5853881835938,1701.4635009765625,7.012195110321045,no_gesture
8766804,1266,143.2786102294922,147.09974670410156,0.7422025203704834,-851.5853881835938,1701.4635009765625,7.012195110321045,no_gesture
8766962,1274,142.58908081054688,147.09974670410156,0.7422025203704834,-851.5853881835938,1701.4635009765625,7.012195110321045,no_gesture
8766982,1275,143.29296875,147.09974670410156,0.7422025203704834,-851.5853881835938,1701.4635009765625,7.012195110321045,no_gesture
8767022,1277,142.42147827148438,147.09974670410156,0.7422025203704834,-851.5853881835938,1701.4635009765625,7.012195110321045,no_gesture
8767041,1278,143.20199584960938,147.09974670410156,0.7422025203704834,-851.5853881835938,1701.4635009765625,7.012195110321045,no_gesture
8767081,1280,142.53640747070312,147.09974670410156,0.7422025203704834,-851.5853881835938,1701.4635009765625,7.012195110321045,no_gesture
8767101,1281,142.19642639160156,147.09974670410156,0.7422025203704834,-851.5853881835938,1701.4635009765625,7.012195110321045,no_gesture
8767121,1282,143.3264923095703,147.09974670410156,0.7422025203704834,-851.5853881835938,1701.4635009765625,7.012195110321045,no_gesture
8767160,1284,142.9625701904297,147.09974670410156,0.7422025203704834,-851.5853881835938,1701.4635009765625,7.012195110321045,no_gesture
8767180,1285,142.37359619140625,147.09974670410156,0.7422025203704834,-851.5853881835938,1701.4635009765625,7.012195110321045,no_gesture
8767398,1296,143.38873291015625,147.09974670410156,0.7422025203704834,-851.5853881835938,1701.4635009765625,7.012195110321045,no_gesture
8767417,1297,143.1157989501953,147.09974670410156,0.7422025203704834,-851.5853881835938,1701.4635009765625,7.012195110321045,no_gesture
8767437,1298,143.0248260498047,147.09974670410156,0.7422025203704834,-851.5853881835938,1701.4635009765625,7.012195110321045,no_gesture
8767457,1299,142.26345825195312,147.09974670410156,0.7422025203704834,-851.5853881835938,1701.4635009765625,7.012195110321045,no_gesture
8767477,1300,143.23550415039062,147.09974670410156,0.7422025203704834,-851.5853881835938,1701.4635009765625,7.012195110321045,no_gesture
8767516,1302,143.35043334960938,147.09974670410156,0.7422025203704834,-851.5853881835938,1701.4635009765625,7.012195110321045,swipe_up
8767675,1310,142.22515869140625,147.09974670410156,0.7422025203704834,-851.5853881835938,1701.4635009765625,7.012195110321045,no_gesture
8767694,1311,-45.38927459716797,140.97059631347656,0.47405192255973816,-633.0487670898438,1779.51220703125,4.390244007110596,no_gesture
8767714,1312,-45.68136978149414,140.97059631347656,0.47405192255973816,-633.0487670898438,1779.51220703125,4.390244007110596,no_gesture
8767734,1313,-46.57680130004883,140.97059631347656,0.47405192255973816,-633.0487670898438,1779.51220703125,4.390244007110596,no_gesture
8767754,1314,-45.45631408691406,140.97059631347656,0.47405192255973816,-633.0487670898438,1779.51220703125,4.390244007110596,no_gesture
8767793,1316,-45.528141021728516,140.97059631347656,0.47405192255973816,-633.0487670898438,1779.51220703125,4.390244007110596,no_gesture
8767813,1317,-45.5999641418457,140.97059631347656,0.47405192255973816,-633.0487670898438,1779.51220703125,4.390244007110596,no_gesture
8767833,1318,-46.4044189453125,140.97059631347656,0.47405192255973816,-633.0487670898438,1779.51220703125,4.390244007110596,no_gesture
8767873,1320,-45.786712646484375,140.97059631347656,0.47405192255973816,-633.0487670898438,1779.51220703125,4.390244007110596,no_gesture
8768051,1329,-45.55208206176758,140.97059631347656,0.47405192255973816,-633.0487670898438,1779.51220703125,4.390244007110596,no_gesture
8768070,1330,-45.65263748168945,140.97059631347656,0.47405192255973816,-633.0487670898438,1779.51220703125,4.390244007110596,no_gesture
8768090,1331,-45.9207878112793,140.97059631347656,0.47405192255973816,-633.0487670898438,1779.51220703125,4.390244007110596,no_gesture
8768150,1334,-45.949520111083984,140.97059631347656,0.47405192255973816,-633.0487670898438,1779.51220703125,4.390244007110596,no_gesture
8768169,1335,-46.30385971069336,140.97059631347656,0.47405192255973816,-633.0487670898438,1779.51220703125,4.390244007110596,no_gesture
8768209,1337,-45.75319290161133,140.97059631347656,0.47405192255973816,-633.0487670898438,1779.51220703125,4.390244007110596,no_gesture
8768229,1338,-45.71009826660156,140.97059631347656,0.47405192255973816,-633.0487670898438,1779.51220703125,4.390244007110596,no_gesture
8768268,1340,-46.0261344909668,140.97059631347656,0.47405192255973816,-633.0487670898438,1779.51220703125,4.390244007110596,no_gesture
8768288,1341,-45.777137756347656,140.97059631347656,0.47405192255973816,-633.0487670898438,1779.51220703125,4.390244007110596,no_gesture
8768308,1342,-46.21288299560547,140.97059631347656,0.47405192255973816,-633.0487670898438,1779.51220703125,4.390244007110596,no_gesture
8768407,1347,-46.260765075683594,140.97059631347656,0.47405192255973816,-633.0487670898438,1779.51220703125,4.390244007110596,no_gesture
8768427,1348,-46.47624206542969,140.97059631347656,0.47405192255973816,-633.0487670898438,1779.51220703125,4.390244007110596,no_gesture
8768446,1349,-46.26555252075195,140.97059631347656,0.47405192255973816,-633.0487670898438,1779.51220703125,4.390244007110596,no_gesture
8768466,1350,-45.480255126953125,140.97059631347656,0.47405192255973816,-633.0487670898438,1779.51220703125,4.390244007110596,no_gesture
8768506,1352,-45.38927459716797,140.97059631347656,0.47405192255973816,-633.0487670898438,1779.51220703125,4.390244007110596,no_gesture
8768526,1353,-46.24639892578125,140.97059631347656,0.47405192255973816,-633.0487670898438,1779.51220703125,4.390244007110596,no_gesture
8768565,1355,-46.4044189453125,140.97059631347656,0.47405192255973816,-633.0487670898438,1779.51220703125,4.390244007110596,no_gesture
8768585,1356,-45.49940872192383,140.97059631347656,0.47405192255973816,-633.0487670898438,1779.51220703125,4.390244007110596,no_gesture
8768605,1357,-46.452301025390625,140.97059631347656,0.47405192255973816,-633.0487670898438,1779.51220703125,4.390244007110596,no_gesture
8768704,1362,-45.595176696777344,140.97059631347656,0.47405192255973816,-633.0487670898438,1779.51220703125,4.390244007110596,no_gesture
8768723,1363,-45.647850036621094,140.97059631347656,0.47405192255973816,-633.0487670898438,1779.51220703125,4.390244007110596,no_gesture
8768743,1364,-46.23682403564453,140.97059631347656,0.47405192255973816,-633.0487670898438,1779.51220703125,4.390244007110596,swipe_up
8768763,1365,-45.4132194519043,140.97059631347656,0.47405192255973816,-633.0487670898438,1779.51220703125,4.390244007110596,no_gesture
8768822,1368,-46.38047409057617,140.97059631347656,0.47405192255973816,-633.0487670898438,1779.51220703125,4.390244007110596,no_gesture
8768842,1369,-45.9207878112793,140.97059631347656,0.47405192255973816,-633.0487670898438,1779.51220703125,4.390244007110596,no_gesture
8768882,1371,-46.21767044067383,140.97059631347656,0.47405192255973816,-633.0487670898438,1779.51220703125,4.390244007110596,no_gesture
8768902,1372,-45.66221618652344,140.97059631347656,0.47405192255973816,-633.0487670898438,1779.51220703125,4.390244007110596,no_gesture
8768941,1374,-46.37568664550781,140.97059631347656,0.47405192255973816,-633.0487670898438,1779.51220703125,4.390244007110596,no_gesture
8768961,1375,-45.700523376464844,140.97059631347656,0.47405192255973816,-633.0487670898438,1779.51220703125,4.390244007110596,no_gesture
8768981,1376,-45.82501983642578,140.97059631347656,0.47405192255973816,-633.0487670898438,1779.51220703125,4.390244007110596,no_gesture
8769060,1380,-46.35174560546875,140.97059631347656,0.47405192255973816,-633.0487670898438,1779.51220703125,4.390244007110596,no_gesture
8769080,1381,-45.50419616699219,140.97059631347656,0.47405192255973816,-633.0487670898438,1779.51220703125,4.390244007110596,no_gesture
8769119,1383,-45.60475540161133,140.97059631347656,0.47405192255973816,-633.0487670898438,1779.51220703125,4.390244007110596,no_gesture
8769139,1384,-45.542503356933594,140.97059631347656,0.47405192255973816,-633.0487670898438,1779.51220703125,4.390244007110596,no_gesture
8769179,1386,-46.11711502075195,140.97059631347656,0.47405192255973816,-633.0487670898438,1779.51220703125,4.390244007110596,no_gesture
8769198,1387,-45.4132194519043,140.97059631347656,0.47405192255973816,-633.0487670898438,1779.51220703125,4.390244007110596,no_gesture
8769238,1389,-46.208091735839844,140.97059631347656,0.47405192255973816,-633.0487670898438,1779.51220703125,4.390244007110596,no_gesture
8769258,1390,-46.32780456542969,140.97059631347656,0.47405192255973816,-633.0487670898438,1779.51220703125,4.390244007110596,no_gesture
8769297,1392,-46.399627685546875,140.97059631347656,0.47405192255973816,-633.0487670898438,1779.51220703125,4.390244007110596,no_gesture
8769317,1393,-46.442726135253906,140.97059631347656,0.47405192255973816,-633.0487670898438,1779.51220703125,4.390244007110596,no_gesture
8769337,1394,-45.9207878112793,140.97059631347656,0.47405192255973816,-633.0487670898438,1779.51220703125,4.390244007110596,no_gesture
8769376,1396,-45.93515396118164,140.97059631347656,0.47405192255973816,-633.0487670898438,1779.51220703125,4.390244007110596,no_gesture
8769555,1405,-45.61433029174805,140.97059631347656,0.47405192255973816,-633.0487670898438,1779.51220703125,4.390244007110596,no_gesture
8769574,1406,-46.13147735595703,140.97059631347656,0.47405192255973816,-633.0487670898438,1779.51220703125,4.390244007110596,no_gesture
8769594,1407,-46.394840240478516,140.97059631347656,0.47405192255973816,-633.0487670898438,1779.51220703125,4.390244007110596,no_gesture
8769614,1408,-46.32780456542969,140.97059631347656,0.47405192255973816,-633.0487670898438,1779.51220703125,4.390244007110596,no_gesture
8769653,1410,-45.82980728149414,140.97059631347656,0.47405192255973816,-633.0487670898438,1779.51220703125,4.390244007110596,no_gesture
8769673,1411,-46.58158874511719,140.97059631347656,0.47405192255973816,-633.0487670898438,1779.51220703125,4.390244007110596,no_gesture
8769752,1415,41.836280822753906,-150.77725219726562,0.5985504388809204,882.1951293945312,-1966.829345703125,3.1097562313079834,swipe_up
8769911,1423,42.22893142700195,-150.77725219726562,0.5985504388809204,882.1951293945312,-1966.829345703125,3.1097562313079834,no_gesture
8769931,1424,42.252872467041016,-150.77725219726562,0.5985504388809204,882.1951293945312,-1966.829345703125,3.1097562313079834,no_gesture
8769950,1425,42.18583297729492,-150.77725219726562,0.5985504388809204,882.1951293945312,-1966.829345703125,3.1097562313079834,no_gesture
8769970,1426,42.612003326416016,-150.77725219726562,0.5985504388809204,882.1951293945312,-1966.829345703125,3.1097562313079834,no_gesture
8770010,1428,42.45877456665039,-150.77725219726562,0.5985504388809204,882.1951293945312,-1966.829345703125,3.1097562313079834,no_gesture
8770029,1429,41.98950958251953,-150.77725219726562,0.5985504388809204,882.1951293945312,-1966.829345703125,3.1097562313079834,no_gesture
8770049,1430,42.44440841674805,-150.77725219726562,0.5985504388809204,882.1951293945312,-1966.829345703125,3.1097562313079834,no_gesture
8770089,1432,41.888954162597656,-150.77725219726562,0.5985504388809204,882.1951293945312,-1966.829345703125,3.1097562313079834,no_gesture
8770267,1441,42.82748031616211,-150.77725219726562,0.5985504388809204,882.1951293945312,-1966.829345703125,3.1097562313079834,no_gesture
8770287,1442,42.29596710205078,-150.77725219726562,0.5985504388809204,882.1951293945312,-1966.829345703125,3.1097562313079834,no_gesture
8770307,1443,42.861000061035156,-150.77725219726562,0.5985504388809204,882.1951293945312,-1966.829345703125,3.1097562313079834,no_gesture
8770386,1447,42.453983306884766,-150.77725219726562,0.5985504388809204,882.1951293945312,-1966.829345703125,3.1097562313079834,no_gesture
8770405,1448,42.22414016723633,-150.77725219726562,0.5985504388809204,882.1951293945312,-1966.829345703125,3.1097562313079834,no_gesture
8770425,1449,42.310333251953125,-150.77725219726562,0.5985504388809204,882.1951293945312,-1966.829345703125,3.1097562313079834,no_gesture
8770445,1450,42.10921859741211,-150.77725219726562,0.5985504388809204,882.1951293945312,-1966.829345703125,3.1097562313079834,no_gesture
8770623,1459,42.41567611694336,-150.77725219726562,0.5985504388809204,882.1951293945312,-1966.829345703125,3.1097562313079834,no_gesture
8770643,1460,42.5353889465332,-150.77725219726562,0.5985504388809204,882.1951293945312,-1966.829345703125,3.1097562313079834,no_gesture
8770682,1462,42.559329986572266,-150.77725219726562,0.5985504388809204,882.1951293945312,-1966.829345703125,3.1097562313079834,no_gesture
8770702,1463,41.68783950805664,-150.77725219726562,0.5985504388809204,882.1951293945312,-1966.829345703125,3.1097562313079834,no_gesture
8770722,1464,41.99429702758789,-150.77725219726562,0.5985504388809204,882.1951293945312,-1966.829345703125,3.1097562313079834,no_gesture
8770742,1465,42.65031051635742,-150.77725219726562,0.5985504388809204,882.1951293945312,-1966.829345703125,3.1097562313079834,no_gesture
8770821,1469,42.23371887207031,-150.77725219726562,0.5985504388809204,882.1951293945312,-1966.829345703125,3.1097562313079834,no_gesture
8770841,1470,42.34385299682617,-150.77725219726562,0.5985504388809204,882.1951293945312,-1966.829345703125,3.1097562313079834,no_gesture
8771019,1479,41.75008773803711,-150.77725219726562,0.5985504388809204,882.1951293945312,-1966.829345703125,3.1097562313079834,no_gesture
8771058,1481,42.28639221191406,-150.77725219726562,0.5985504388809204,882.1951293945312,-1966.829345703125,3.1097562313079834,no_gesture
8771098,1483,42.58805847167969,-150.77725219726562,0.5985504388809204,882.1951293945312,-1966.829345703125,3.1097562313079834,no_gesture
8771118,1484,42.200199127197266,-150.77725219726562,0.5985504388809204,882.1951293945312,-1966.829345703125,3.1097562313079834,no_gesture
8771157,1486,42.449195861816406,-150.77725219726562,0.5985504388809204,882.1951293945312,-1966.829345703125,3.1097562313079834,no_gesture
8771177,1487,42.760440826416016,-150.77725219726562,0.5985504388809204,882.1951293945312,-1966.829345703125,3.1097562313079834,no_gesture
8771217,1489,42.46356201171875,-150.77725219726562,0.5985504388809204,882.1951293945312,-1966.829345703125,3.1097562313079834,no_gesture
8771237,1490,42.554542541503906,-150.77725219726562,0.5985504388809204,882.1951293945312,-1966.829345703125,3.1097562313079834,no_gesture
8771276,1492,42.6646728515625,-150.77725219726562,0.5985504388809204,882.1951293945312,-1966.829345703125,3.1097562313079834,no_gesture
8771296,1493,42.08527755737305,-150.77725219726562,0.5985504388809204,882.1951293945312,-1966.829345703125,3.1097562313079834,no_gesture
8771336,1495,42.367794036865234,-150.77725219726562,0.5985504388809204,882.1951293945312,-1966.829345703125,3.1097562313079834,no_gesture
8771355,1496,42.52102279663086,-150.77725219726562,0.5985504388809204,882.1951293945312,-1966.829345703125,3.1097562313079834,swipe_up
8771395,1498,42.26723861694336,-150.77725219726562,0.5985504388809204,882.1951293945312,-1966.829345703125,3.1097562313079834,no_gesture
8771415,1499,42.28639221191406,-150.77725219726562,0.5985504388809204,882.1951293945312,-1966.829345703125,3.1097562313079834,no_gesture
8771454,1501,42.1762580871582,-150.77725219726562,0.5985504388809204,882.1951293945312,-1966.829345703125,3.1097562313079834,no_gesture
8771474,1502,41.98472213745117,-150.77725219726562,0.5985504388809204,882.1951293945312,-1966.829345703125,3.1097562313079834,no_gesture
8771514,1504,41.98472213745117,-150.77725219726562,0.5985504388809204,882.1951293945312,-1966.829345703125,3.1097562313079834,no_gesture
8771533,1505,41.87937545776367,-150.77725219726562,0.5985504388809204,882.1951293945312,-1966.829345703125,3.1097562313079834,no_gesture
8771573,1507,42.49229049682617,-150.77725219726562,0.5985504388809204,882.1951293945312,-1966.829345703125,3.1097562313079834,no_gesture
8771593,1508,41.99429702758789,-150.77725219726562,0.5985504388809204,882.1951293945312,-1966.829345703125,3.1097562313079834,no_gesture
8771632,1510,42.57848358154297,-150.77725219726562,0.5985504388809204,882.1951293945312,-1966.829345703125,3.1097562313079834,no_gesture
8771652,1511,42.04218292236328,-150.77725219726562,0.5985504388809204,882.1951293945312,-1966.829345703125,3.1097562313079834,no_gesture
8771711,1514,-58.29881286621094,125.0347900390625,0.2777273952960968,1614.08544921875,1623.4146728515625,9.390244483947754,no_gesture
8771731,1515,-58.60047912597656,125.0347900390625,0.2777273952960968,1614.08544921875,1623.4146728515625,9.390244483947754,no_gesture
8771751,1516,-58.01629638671875,125.0347900390625,0.2777273952960968,1614.08544921875,1623.4146728515625,9.390244483947754,no_gesture
8771810,1519,-57.76729965209961,125.0347900390625,0.2777273952960968,1614.08544921875,1623.4146728515625,9.390244483947754,no_gesture
8771830,1520,-57.810394287109375,125.0347900390625,0.2777273952960968,1614.08544921875,1623.4146728515625,9.390244483947754,no_gesture
8771870,1522,-57.90137481689453,125.0347900390625,0.2777273952960968,1614.08544921875,1623.4146728515625,9.390244483947754,no_gesture
8771890,1523,-57.805606842041016,125.0347900390625,0.2777273952960968,1614.08544921875,1623.4146728515625,9.390244483947754,no_gesture
8771929,1525,-58.65315246582031,125.0347900390625,0.2777273952960968,1614.08544921875,1623.4146728515625,9.390244483947754,no_gesture
8771949,1526,-57.74335479736328,125.0347900390625,0.2777273952960968,1614.08544921875,1623.4146728515625,9.390244483947754,no_gesture
8771989,1528,-58.71061325073242,125.0347900390625,0.2777273952960968,1614.08544921875,1623.4146728515625,9.390244483947754,no_gesture
8772008,1529,-58.835113525390625,125.0347900390625,0.2777273952960968,1614.08544921875,1623.4146728515625,9.390244483947754,no_gesture
8772048,1531,-58.74892044067383,125.0347900390625,0.2777273952960968,1614.08544921875,1623.4146728515625,9.390244483947754,no_gesture
8772068,1532,-58.52386474609375,125.0347900390625,0.2777273952960968,1614.08544921875,1623.4146728515625,9.390244483947754,no_gesture
8772107,1534,-58.81595993041992,125.0347900390625,0.2777273952960968,1614.08544921875,1623.4146728515625,9.390244483947754,no_gesture
8772127,1535,-58.25092697143555,125.0347900390625,0.2777273952960968,1614.08544921875,1623.4146728515625,9.390244483947754,no_gesture
8772167,1537,-58.07375717163086,125.0347900390625,0.2777273952960968,1614.08544921875,1623.4146728515625,9.390244483947754,no_gesture
8772186,1538,-58.13121795654297,125.0347900390625,0.2777273952960968,1614.08544921875,1623.4146728515625,9.390244483947754,no_gesture
8772226,1540,-58.01629638671875,125.0347900390625,0.2777273952960968,1614.08544921875,1623.4146728515625,9.390244483947754,no_gesture
8772246,1541,-58.60527038574219,125.0347900390625,0.2777273952960968,1614.08544921875,1623.4146728515625,9.390244483947754,no_gesture
8772266,1542,-58.51907730102539,125.0347900390625,0.2777273952960968,1614.08544921875,1623.4146728515625,9.390244483947754,no_gesture
8772305,1544,-58.0689697265625,125.0347900390625,0.2777273952960968,1614.08544921875,1623.4146728515625,9.390244483947754,no_gesture
8772483,1553,-58.62442398071289,125.0347900390625,0.2777273952960968,1614.08544921875,1623.4146728515625,9.390244483947754,no_gesture
8772503,1554,-58.64836502075195,125.0347900390625,0.2777273952960968,1614.08544921875,1623.4146728515625,9.390244483947754,no_gesture
8772543,1556,-57.79124069213867,125.0347900390625,0.2777273952960968,1614.08544921875,1623.4146728515625,9.390244483947754,no_gesture
8772562,1557,-58.07375717163086,125.0347900390625,0.2777273952960968,1614.08544921875,1623.4146728515625,9.390244483947754,no_gesture
8772582,1558,-58.01150894165039,125.0347900390625,0.2777273952960968,1614.08544921875,1623.4146728515625,9.390244483947754,swipe_up
8772602,1559,-58.1982536315918,125.0347900390625,0.2777273952960968,1614.08544921875,1623.4146728515625,9.390244483947754,no_gesture
8772622,1560,-58.586116790771484,125.0347900390625,0.2777273952960968,1614.08544921875,1623.4146728515625,9.390244483947754,no_gesture
8772839,1571,-57.671531677246094,125.0347900390625,0.2777273952960968,1614.08544921875,1623.4146728515625,9.390244483947754,no_gesture
8772859,1572,-57.819969177246094,125.0347900390625,0.2777273952960968,1614.08544921875,1623.4146728515625,9.390244483947754,no_gesture
8772899,1574,-58.43767547607422,125.0347900390625,0.2777273952960968,1614.08544921875,1623.4146728515625,9.390244483947754,no_gesture
8772919,1575,-58.81595993041992,125.0347900390625,0.2777273952960968,1614.08544921875,1623.4146728515625,9.390244483947754,no_gesture
8772958,1577,-57.93010330200195,125.0347900390625,0.2777273952960968,1614.08544921875,1623.4146728515625,9.390244483947754,no_gesture
8772978,1578,-58.49034881591797,125.0347900390625,0.2777273952960968,1614.08544921875,1623.4146728515625,9.390244483947754,no_gesture
8772998,1579,-58.20783233642578,125.0347900390625,0.2777273952960968,1614.08544921875,1623.4146728515625,9.390244483947754,no_gesture
8773037,1581,-58.82074737548828,125.0347900390625,0.2777273952960968,1614.08544921875,1623.4146728515625,9.390244483947754,no_gesture
8773215,1590,-58.471195220947266,125.0347900390625,0.2777273952960968,1614.08544921875,1623.4146728515625,9.390244483947754,no_gesture
8773235,1591,-58.34669494628906,125.0347900390625,0.2777273952960968,1614.08544921875,1623.4146728515625,9.390244483947754,no_gesture
8773255,1592,-57.78166198730469,125.0347900390625,0.2777273952960968,1614.08544921875,1623.4146728515625,9.390244483947754,no_gesture
8773275,1593,-58.370635986328125,125.0347900390625,0.2777273952960968,1614.08544921875,1623.4146728515625,9.390244483947754,no_gesture
8773314,1595,-58.279659271240234,125.0347900390625,0.2777273952960968,1614.08544921875,1623.4146728515625,9.390244483947754,no_gesture
8773334,1596,-58.80159378051758,125.0347900390625,0.2777273952960968,1614.08544921875,1623.4146728515625,9.390244483947754,no_gesture
8773354,1597,-57.71462631225586,125.0347900390625,0.2777273952960968,1614.08544921875,1623.4146728515625,9.390244483947754,no_gesture
8773394,1599,-58.37542724609375,125.0347900390625,0.2777273952960968,1614.08544921875,1623.4146728515625,9.390244483947754,no_gesture
8773572,1608,-58.475982666015625,125.0347900390625,0.2777273952960968,1614.08544921875,1623.4146728515625,9.390244483947754,no_gesture
8773591,1609,-58.45204162597656,125.0347900390625,0.2777273952960968,1614.08544921875,1623.4146728515625,9.390244483947754,no_gesture
8773611,1610,-58.480770111083984,125.0347900390625,0.2777273952960968,1614.08544921875,1623.4146728515625,9.390244483947754,no_gesture
8773690,1614,-46.145843505859375,153.22891235351562,0.14844051003456116,-289.0243835449219,1951.2196044921875,6.158536911010742,no_gesture
8773710,1615,-45.63827133178711,153.22891235351562,0.14844051003456116,-289.0243835449219,1951.2196044921875,6.158536911010742,no_gesture
8773730,1616,-45.40842819213867,153.22891235351562,0.14844051003456116,-289.0243835449219,1951.2196044921875,6.158536911010742,no_gesture
8773750,1617,-46.11711502075195,153.22891235351562,0.14844051003456116,-289.0243835449219,1951.2196044921875,6.158536911010742,no_gesture
8773928,1626,-45.896846771240234,153.22891235351562,0.14844051003456116,-289.0243835449219,1951.2196044921875,6.158536911010742,swipe_up
8773948,1627,-45.700523376464844,153.22891235351562,0.14844051003456116,-289.0243835449219,1951.2196044921875,6.158536911010742,no_gesture
8773967,1628,-45.671791076660156,153.22891235351562,0.14844051003456116,-289.0243835449219,1951.2196044921875,6.158536911010742,no_gesture
8773987,1629,-46.040496826171875,153.22891235351562,0.14844051003456116,-289.0243835449219,1951.2196044921875,6.158536911010742,no_gesture
8774027,1631,-45.71009826660156,153.22891235351562,0.14844051003456116,-289.0243835449219,1951.2196044921875,6.158536911010742,no_gesture
8774047,1632,-45.427581787109375,153.22891235351562,0.14844051003456116,-289.0243835449219,1951.2196044921875,6.158536911010742,no_gesture
8774086,1634,-45.74361801147461,153.22891235351562,0.14844051003456116,-289.0243835449219,1951.2196044921875,6.158536911010742,no_gesture
8774106,1635,-46.48103332519531,153.22891235351562,0.14844051003456116,-289.0243835449219,1951.2196044921875,6.158536911010742,no_gesture
8774146,1637,-46.54806900024414,153.22891235351562,0.14844051003456116,-289.0243835449219,1951.2196044921875,6.158536911010742,no_gesture
8774165,1638,-45.63348388671875,153.22891235351562,0.14844051003456116,-289.0243835449219,1951.2196044921875,6.158536911010742,no_gesture
8774205,1640,-46.48582077026367,153.22891235351562,0.14844051003456116,-289.0243835449219,1951.2196044921875,6.158536911010742,no_gesture
8774225,1641,-46.52412796020508,153.22891235351562,0.14844051003456116,-289.0243835449219,1951.2196044921875,6.158536911010742,no_gesture
8774284,1644,-45.40842819213867,153.22891235351562,0.14844051003456116,-289.0243835449219,1951.2196044921875,6.158536911010742,no_gesture
8774304,1645,-45.81544494628906,153.22891235351562,0.14844051003456116,-289.0243835449219,1951.2196044921875,6.158536911010742,no_gesture
8774324,1646,-45.94472885131836,153.22891235351562,0.14844051003456116,-289.0243835449219,1951.2196044921875,6.158536911010742,no_gesture
8774343,1647,-45.57123565673828,153.22891235351562,0.14844051003456116,-289.0243835449219,1951.2196044921875,6.158536911010742,no_gesture
8774403,1650,-46.198516845703125,153.22891235351562,0.14844051003456116,-289.0243835449219,1951.2196044921875,6.158536911010742,no_gesture
8774423,1651,-46.06922912597656,153.22891235351562,0.14844051003456116,-289.0243835449219,1951.2196044921875,6.158536911010742,no_gesture
8774462,1653,-45.99261474609375,153.22891235351562,0.14844051003456116,-289.0243835449219,1951.2196044921875,6.158536911010742,no_gesture
8774482,1654,-45.88726806640625,153.22891235351562,0.14844051003456116,-289.0243835449219,1951.2196044921875,6.158536911010742,no_gesture
8774521,1656,-46.504974365234375,153.22891235351562,0.14844051003456116,-289.0243835449219,1951.2196044921875,6.158536911010742,no_gesture
8774541,1657,-45.77234649658203,153.22891235351562,0.14844051003456116,-289.0243835449219,1951.2196044921875,6.158536911010742,no_gesture
8774581,1659,-45.65263748168945,153.22891235351562,0.14844051003456116,-289.0243835449219,1951.2196044921875,6.158536911010742,no_gesture
8774601,1660,-45.40364074707031,153.22891235351562,0.14844051003456116,-289.0243835449219,1951.2196044921875,6.158536911010742,no_gesture
8774640,1662,-46.53849411010742,153.22891235351562,0.14844051003456116,-289.0243835449219,1951.2196044921875,6.158536911010742,no_gesture
8774660,1663,-45.96867370605469,153.22891235351562,0.14844051003456116,-289.0243835449219,1951.2196044921875,6.158536911010742,no_gesture
8774700,1665,-45.585601806640625,153.22891235351562,0.14844051003456116,-289.0243835449219,1951.2196044921875,6.158536911010742,no_gesture
8774719,1666,-46.136268615722656,153.22891235351562,0.14844051003456116,-289.0243835449219,1951.2196044921875,6.158536911010742,no_gesture
8774759,1668,-46.35653305053711,153.22891235351562,0.14844051003456116,-289.0243835449219,1951.2196044921875,6.158536911010742,no_gesture
8774779,1669,-45.62390899658203,153.22891235351562,0.14844051003456116,-289.0243835449219,1951.2196044921875,6.158536911010742,no_gesture
8774799,1670,-46.260765075683594,153.22891235351562,0.14844051003456116,-289.0243835449219,1951.2196044921875,6.158536911010742,no_gesture
8774878,1674,-46.34695816040039,153.22891235351562,0.14844051003456116,-289.0243835449219,1951.2196044921875,6.158536911010742,no_gesture
8774897,1675,-46.01655578613281,153.22891235351562,0.14844051003456116,-289.0243835449219,1951.2196044921875,6.158536911010742,no_gesture
8774937,1677,-46.141056060791016,153.22891235351562,0.14844051003456116,-289.0243835449219,1951.2196044921875,6.158536911010742,no_gesture
8774957,1678,-46.390052795410156,153.22891235351562,0.14844051003456116,-289.0243835449219,1951.2196044921875,6.158536911010742,no_gesture
8774996,1680,-45.729251861572266,153.22891235351562,0.14844051003456116,-289.0243835449219,1951.2196044921875,6.158536911010742,no_gesture
8775016,1681,-45.82023239135742,153.22891235351562,0.14844051003456116,-289.0243835449219,1951.2196044921875,6.158536911010742,no_gesture
8775056,1683,-46.035709381103516,153.22891235351562,0.14844051003456116,-289.0243835449219,1951.2196044921875,6.158536911010742,no_gesture
8775076,1684,-45.954307556152344,153.22891235351562,0.14844051003456116,-289.0243835449219,1951.2196044921875,6.158536911010742,no_gesture
8775115,1686,-45.580810546875,153.22891235351562,0.14844051003456116,-289.0243835449219,1951.2196044921875,6.158536911010742,no_gesture
8775135,1687,-46.447513580322266,153.22891235351562,0.14844051003456116,-289.0243835449219,1951.2196044921875,6.158536911010742,swipe_right
8775175,1689,-46.251190185546875,153.22891235351562,0.14844051003456116,-289.0243835449219,1951.2196044921875,6.158536911010742,no_gesture
8775194,1690,-46.366111755371094,153.22891235351562,0.14844051003456116,-289.0243835449219,1951.2196044921875,6.158536911010742,no_gesture
8775214,1691,-46.42835998535156,153.22891235351562,0.14844051003456116,-289.0243835449219,1951.2196044921875,6.158536911010742,no_gesture
8775254,1693,-45.9590950012207,153.22891235351562,0.14844051003456116,-289.0243835449219,1951.2196044921875,6.158536911010742,no_gesture
8775432,1702,-45.394065856933594,153.22891235351562,0.14844051003456116,-289.0243835449219,1951.2196044921875,6.158536911010742,no_gesture
8775452,1703,-45.896846771240234,153.22891235351562,0.14844051003456116,-289.0243835449219,1951.2196044921875,6.158536911010742,no_gesture
8775471,1704,-45.63827133178711,153.22891235351562,0.14844051003456116,-289.0243835449219,1951.2196044921875,6.158536911010742,no_gesture
8775491,1705,-46.01655578613281,153.22891235351562,0.14844051003456116,-289.0243835449219,1951.2196044921875,6.158536911010742,no_gesture
8775531,1707,-46.35653305053711,153.22891235351562,0.14844051003456116,-289.0243835449219,1951.2196044921875,6.158536911010742,no_gesture
8775550,1708,-45.62869644165039,153.22891235351562,0.14844051003456116,-289.0243835449219,1951.2196044921875,6.158536911010742,no_gesture
8775570,1709,-45.394065856933594,153.22891235351562,0.14844051003456116,-289.0243835449219,1951.2196044921875,6.158536911010742,no_gesture
8775610,1711,-46.5720100402832,153.22891235351562,0.14844051003456116,-289.0243835449219,1951.2196044921875,6.158536911010742,no_gesture
8775729,1717,-112.33594512939453,120.13146209716797,0.3256114423274994,240.12196350097656,1529.756103515625,7.621951580047607,no_gesture
8775748,1718,-111.60331726074219,120.13146209716797,0.3256114423274994,240.12196350097656,1529.756103515625,7.621951580047607,no_gesture
8775768,1719,-112.2545394897461,120.13146209716797,0.3256114423274994,240.12196350097656,1529.756103515625,7.621951580047607,no_gesture
8775788,1720,-111.96244812011719,120.13146209716797,0.3256114423274994,240.12196350097656,1529.756103515625,7.621951580047607,no_gesture
8775808,1721,-112.12046813964844,120.13146209716797,0.3256114423274994,240.12196350097656,1529.756103515625,7.621951580047607,no_gesture
8775907,1726,-112.3311538696289,120.13146209716797,0.3256114423274994,240.12196350097656,1529.756103515625,7.621951580047607,no_gesture
8775926,1727,-112.56578826904297,120.13146209716797,0.3256114423274994,240.12196350097656,1529.756103515625,7.621951580047607,no_gesture
8775946,1728,-111.73739624023438,120.13146209716797,0.3256114423274994,240.12196350097656,1529.756103515625,7.621951580047607,no_gesture
8775966,1729,-112.74774932861328,120.13146209716797,0.3256114423274994,240.12196350097656,1529.756103515625,7.621951580047607,no_gesture
8776144,1738,-112.51790618896484,120.13146209716797,0.3256114423274994,240.12196350097656,1529.756103515625,7.621951580047607,no_gesture
8776164,1739,-111.65599060058594,120.13146209716797,0.3256114423274994,240.12196350097656,1529.756103515625,7.621951580047607,no_gesture
8776184,1740,-111.65599060058594,120.13146209716797,0.3256114423274994,240.12196350097656,1529.756103515625,7.621951580047607,no_gesture
8776203,1741,-112.59452056884766,120.13146209716797,0.3256114423274994,240.12196350097656,1529.756103515625,7.621951580047607,no_gesture
8776263,1744,-112.58015441894531,120.13146209716797,0.3256114423274994,240.12196350097656,1529.756103515625,7.621951580047607,no_gesture
8776283,1745,-112.69507598876953,120.13146209716797,0.3256114423274994,240.12196350097656,1529.756103515625,7.621951580047607,no_gesture
8776302,1746,-112.08216094970703,120.13146209716797,0.3256114423274994,240.12196350097656,1529.756103515625,7.621951580047607,no_gesture
8776342,1748,-112.62803649902344,120.13146209716797,0.3256114423274994,240.12196350097656,1529.756103515625,7.621951580047607,swipe_left
8776441,1753,-112.29763793945312,120.13146209716797,0.3256114423274994,240.12196350097656,1529.756103515625,7.621951580047607,no_gesture
8776461,1754,-112.26890563964844,120.13146209716797,0.3256114423274994,240.12196350097656,1529.756103515625,7.621951580047607,no_gesture
8776500,1756,-111.73260498046875,120.13146209716797,0.3256114423274994,240.12196350097656,1529.756103515625,7.621951580047607,no_gesture
8776520,1757,-112.39340209960938,120.13146209716797,0.3256114423274994,240.12196350097656,1529.756103515625,7.621951580047607,no_gesture
8776560,1759,-112.46044158935547,120.13146209716797,0.3256114423274994,240.12196350097656,1529.756103515625,7.621951580047607,no_gesture
8776579,1760,-111.6128921508789,120.13146209716797,0.3256114423274994,240.12196350097656,1529.756103515625,7.621951580047607,no_gesture
8776619,1762,-112.55142211914062,120.13146209716797,0.3256114423274994,240.12196350097656,1529.756103515625,7.621951580047607,no_gesture
8776639,1763,-112.11567687988281,120.13146209716797,0.3256114423274994,240.12196350097656,1529.756103515625,7.621951580047607,no_gesture
8776659,1764,-111.65119934082031,120.13146209716797,0.3256114423274994,240.12196350097656,1529.756103515625,7.621951580047607,no_gesture
8776698,1766,-111.68472290039062,120.13146209716797,0.3256114423274994,240.12196350097656,1529.756103515625,7.621951580047607,no_gesture
8776857,1774,-112.38382720947266,120.13146209716797,0.3256114423274994,240.12196350097656,1529.756103515625,7.621951580047607,no_gesture
8776876,1775,-111.81401062011719,120.13146209716797,0.3256114423274994,240.12196350097656,1529.756103515625,7.621951580047607,no_gesture
8776916,1777,-111.76133728027344,120.13146209716797,0.3256114423274994,240.12196350097656,1529.756103515625,7.621951580047607,no_gesture
8776936,1778,-112.69985961914062,120.13146209716797,0.3256114423274994,240.12196350097656,1529.756103515625,7.621951580047607,no_gesture
8776975,1780,-112.05821990966797,120.13146209716797,0.3256114423274994,240.12196350097656,1529.756103515625,7.621951580047607,no_gesture
8776995,1781,-112.15398406982422,120.13146209716797,0.3256114423274994,240.12196350097656,1529.756103515625,7.621951580047607,no_gesture
8777035,1783,-111.81879425048828,120.13146209716797,0.3256114423274994,240.12196350097656,1529.756103515625,7.621951580047607,no_gesture
8777054,1784,-112.30721282958984,120.13146209716797,0.3256114423274994,240.12196350097656,1529.756103515625,7.621951580047607,no_gesture
8777094,1786,-112.57057189941406,120.13146209716797,0.3256114423274994,240.12196350097656,1529.756103515625,7.621951580047607,no_gesture
8777114,1787,-112.52748107910156,120.13146209716797,0.3256114423274994,240.12196350097656,1529.756103515625,7.621951580047607,no_gesture
8777153,1789,-112.6902847290039,120.13146209716797,0.3256114423274994,240.12196350097656,1529.756103515625,7.621951580047607,no_gesture
8777173,1790,-111.97681427001953,120.13146209716797,0.3256114423274994,240.12196350097656,1529.756103515625,7.621951580047607,no_gesture
8777213,1792,-111.7182388305664,120.13146209716797,0.3256114423274994,240.12196350097656,1529.756103515625,7.621951580047607,no_gesture
8777233,1793,-112.0007553100586,120.13146209716797,0.3256114423274994,240.12196350097656,1529.756103515625,7.621951580047607,no_gesture
